subject_ids,num_class,num_votes,agg_num_species,diff_species,choice,votes.x,propvote.x,propclass.x,med_count.x,min_count.x,max_count.x,behavior_CLIMBING,behavior_DIGGING,behavior_FLYING,behavior_FORAGINGEATING,behavior_INTERACTING,behavior_OTHER,behavior_SITTINGSTANDINGLYING,behavior_WALKINGRUNNING,classification_id,user_name,workflow_version,task_index,task,task_label,value,total_submissions,submission_index,choice.y,choice.1,Number,SnowDepth,Young,Antlers,Precipitation,behavior_CLIMBING.y,behavior_DIGGING.y,behavior_FLYING.y,behavior_FORAGINGEATING.y,behavior_INTERACTING.y,behavior_OTHER.y,behavior_SITTINGSTANDINGLYING.y,behavior_WALKINGRUNNING.y,subject_ids.1,ForestType,ForestName,Image1,Image2,Image3,Camera,SDCard,PhotoBatch,Class_Round,num_class.y,num_species,check_num_spp,num_votes.y,diff_species.y,agg_num_species.y
31428286,4,4,1,1,NOTHINGHERE,4,1,1,NA,NA,NA,NA,NA,NA,NA,NA,NA,NA,NA,155951222,anvon15,123.17,1,T0,NA,"list(list(choice = ""NOTHINGHERE"", answers = list(), filters = list()))",1,1,NOTHINGHERE,NA,NA,NA,NA,NA,NA,NA,NA,NA,NA,NA,NA,NA,NA,31428286,Deciduous ,SH,03_05_SH_000001.JPG,03_05_SH_000002.JPG,03_05_SH_000003.JPG,3,5,1,1,4,1,1,4,1,1
31428287,5,5,1,1,NOTHINGHERE,5,1,1,NA,NA,NA,NA,NA,NA,NA,NA,NA,NA,NA,156440008,brigidbarstow,123.17,1,T0,NA,"list(list(choice = ""NOTHINGHERE"", answers = list(), filters = list()))",1,1,NOTHINGHERE,NA,NA,NA,NA,NA,NA,NA,NA,NA,NA,NA,NA,NA,NA,31428287,Deciduous ,SH,03_05_SH_000004.JPG,03_05_SH_000005.JPG,03_05_SH_000006.JPG,3,5,1,1,5,1,1,5,1,1
31428288,6,6,1,1,NOTHINGHERE,6,1,1,NA,NA,NA,NA,NA,NA,NA,NA,NA,NA,NA,155209169,barthelmess,123.17,1,T0,NA,"list(list(choice = ""NOTHINGHERE"", answers = list(), filters = list()))",1,1,NOTHINGHERE,NA,NA,NA,NA,NA,NA,NA,NA,NA,NA,NA,NA,NA,NA,31428288,Deciduous ,SH,03_05_SH_000007.JPG,03_05_SH_000008.JPG,03_05_SH_000009.JPG,3,5,1,1,6,1,1,6,1,1
31428289,3,3,1,1,NOTHINGHERE,3,1,1,NA,NA,NA,NA,NA,NA,NA,NA,NA,NA,NA,155949282,anvon15,123.17,1,T0,NA,"list(list(choice = ""NOTHINGHERE"", answers = list(), filters = list()))",1,1,NOTHINGHERE,NA,NA,NA,NA,NA,NA,NA,NA,NA,NA,NA,NA,NA,NA,31428289,Deciduous ,SH,03_05_SH_000010.JPG,03_05_SH_000011.JPG,03_05_SH_000012.JPG,3,5,1,1,3,1,1,3,1,1
31428290,4,4,1,2,SOMETHINGHERE,3,0.75,0.75,NA,NA,NA,NA,NA,NA,NA,NA,NA,NA,NA,155950164,anvon15,123.17,1,T0,NA,"list(list(choice = ""NOTHINGHERE"", answers = list(), filters = list()))",1,1,NOTHINGHERE,NA,NA,NA,NA,NA,NA,NA,NA,NA,NA,NA,NA,NA,NA,31428290,Deciduous ,SH,03_05_SH_000013.JPG,03_05_SH_000014.JPG,03_05_SH_000015.JPG,3,5,1,1,4,1,1,4,2,1
31428291,5,5,1,1,NOTHINGHERE,5,1,1,NA,NA,NA,NA,NA,NA,NA,NA,NA,NA,NA,154692193,Hartk,123.17,1,T0,NA,"list(list(choice = ""NOTHINGHERE"", answers = list(), filters = list()))",1,1,NOTHINGHERE,NA,NA,NA,NA,NA,NA,NA,NA,NA,NA,NA,NA,NA,NA,31428291,Pine ,WF,04_26_WF_000001.JPG,04_26_WF_000002.JPG,04_26_WF_000003.JPG,4,26,1,1,5,1,1,5,1,1
31428292,1,1,1,1,NOTHINGHERE,1,1,1,NA,NA,NA,NA,NA,NA,NA,NA,NA,NA,NA,154693994,not-logged-in-42881cd7c1c2c2f4d1fc,123.17,1,T0,NA,"list(list(choice = ""NOTHINGHERE"", answers = list(), filters = list()))",1,1,NOTHINGHERE,NA,NA,NA,NA,NA,NA,NA,NA,NA,NA,NA,NA,NA,NA,31428292,Pine ,WF,04_26_WF_000004.JPG,04_26_WF_000005.JPG,04_26_WF_000006.JPG,4,26,1,1,1,1,1,1,1,1
31428293,6,6,1,1,NOTHINGHERE,6,1,1,NA,NA,NA,NA,NA,NA,NA,NA,NA,NA,NA,155213230,barthelmess,123.17,1,T0,NA,"list(list(choice = ""NOTHINGHERE"", answers = list(), filters = list()))",1,1,NOTHINGHERE,NA,NA,NA,NA,NA,NA,NA,NA,NA,NA,NA,NA,NA,NA,31428293,Pine ,WF,04_26_WF_000007.JPG,04_26_WF_000008.JPG,04_26_WF_000009.JPG,4,26,1,1,6,1,1,6,1,1
31428294,2,2,1,1,NOTHINGHERE,2,1,1,NA,NA,NA,NA,NA,NA,NA,NA,NA,NA,NA,155997813,LJKinsey,123.17,1,T0,NA,"list(list(choice = ""NOTHINGHERE"", answers = list(), filters = list()))",1,1,NOTHINGHERE,NA,NA,NA,NA,NA,NA,NA,NA,NA,NA,NA,NA,NA,NA,31428294,Pine ,WF,04_26_WF_000010.JPG,04_26_WF_000011.JPG,04_26_WF_000012.JPG,4,26,1,1,2,1,1,2,1,1
31428295,2,2,1,2,TURKEY,1,0.5,0.5,2,2,2,0,0,0,0,0,0,0,1,156720982,seauch15,123.17,1,T0,NA,"list(list(choice = ""CROWORRAVEN"", answers = list(HOWMANY = ""2"", SNOWDEPTH = ""2030CM"", YOUNGPRESENT = ""NO"", PRECIPITATIONRAINSNOW = ""NO"", WHATBEHAVIORSDOYOUSEE = list(""SITTINGSTANDINGLYING"")), filters = list(TYPE = ""BIRD"")))",1,1,CROWORRAVEN,NA,2,2030CM,NO,NA,NO,0,0,0,0,0,0,1,0,31428295,Pine ,WF,04_26_WF_000013.JPG,04_26_WF_000014.JPG,04_26_WF_000015.JPG,4,26,1,1,2,1,1,2,2,1
31428296,3,3,1,1,NOTHINGHERE,3,1,1,NA,NA,NA,NA,NA,NA,NA,NA,NA,NA,NA,155865029,Donovan.Spaulding,123.17,1,T0,NA,"list(list(choice = ""NOTHINGHERE"", answers = list(), filters = list()))",1,1,NOTHINGHERE,NA,NA,NA,NA,NA,NA,NA,NA,NA,NA,NA,NA,NA,NA,31428296,Pine ,WF,04_26_WF_000016.JPG,04_26_WF_000017.JPG,04_26_WF_000018.JPG,4,26,1,1,3,1,1,3,1,1
31428297,3,3,1,1,DEERWHITETAILED,3,1,1,1,1,1,0,0,0,0,0.333333333,0,0.666666667,0.333333333,155770321,keandy16,123.17,1,T0,NA,"list(list(choice = ""DEERWHITETAILED"", answers = list(HOWMANY = ""1"", SNOWDEPTH = ""1020CM"", YOUNGPRESENT = ""NO"", ANTLERSPRESENT = ""NO"", PRECIPITATIONRAINSNOW = ""NO"", WHATBEHAVIORSDOYOUSEE = list(""SITTINGSTANDINGLYING"")), filters = list()))",1,1,DEERWHITETAILED,NA,1,1020CM,NO,NO,NO,0,0,0,0,0,0,1,0,31428297,Pine ,WF,04_26_WF_000019.JPG,04_26_WF_000020.JPG,04_26_WF_000021.JPG,4,26,1,1,3,1,1,3,1,1
31428298,3,3,1,1,DEERWHITETAILED,3,1,1,1,1,1,0,0,0,0,0,0,0,1,155714198,anvon15,123.17,1,T0,NA,"list(list(choice = ""DEERWHITETAILED"", answers = list(HOWMANY = ""1"", SNOWDEPTH = ""2030CM"", YOUNGPRESENT = ""NO"", ANTLERSPRESENT = ""NO"", PRECIPITATIONRAINSNOW = ""NO"", WHATBEHAVIORSDOYOUSEE = list(""WALKINGRUNNING"")), filters = list()))",1,1,DEERWHITETAILED,NA,1,2030CM,NO,NO,NO,0,0,0,0,0,0,0,1,31428298,Pine ,WF,04_26_WF_000022.JPG,04_26_WF_000023.JPG,04_26_WF_000024.JPG,4,26,1,1,3,1,1,3,1,1
31428299,3,3,1,1,DEERWHITETAILED,3,1,1,1,1,1,0,0,0,0.333333333,0,0,0,1,155713608,anvon15,123.17,1,T0,NA,"list(list(choice = ""DEERWHITETAILED"", answers = list(HOWMANY = ""1"", SNOWDEPTH = ""2030CM"", YOUNGPRESENT = ""NO"", ANTLERSPRESENT = ""NO"", PRECIPITATIONRAINSNOW = ""NO"", WHATBEHAVIORSDOYOUSEE = list(""WALKINGRUNNING"", ""FORAGINGEATING"")), filters = list()))",1,1,DEERWHITETAILED,NA,1,2030CM,NO,NO,NO,0,0,0,1,0,0,0,1,31428299,Pine ,WF,04_26_WF_000025.JPG,04_26_WF_000026.JPG,04_26_WF_000027.JPG,4,26,1,1,3,1,1,3,1,1
31428300,3,3,1,1,DEERWHITETAILED,3,1,1,1,1,1,0,0,0,0,0,0,0,1,154694490,abuckley2681,123.17,1,T0,NA,"list(list(choice = ""DEERWHITETAILED"", answers = list(HOWMANY = ""1"", SNOWDEPTH = ""010CM"", YOUNGPRESENT = ""NO"", ANTLERSPRESENT = ""NO"", PRECIPITATIONRAINSNOW = ""NO"", WHATBEHAVIORSDOYOUSEE = list(""WALKINGRUNNING"")), filters = list()))",1,1,DEERWHITETAILED,NA,1,010CM,NO,NO,NO,0,0,0,0,0,0,0,1,31428300,Pine ,WF,04_26_WF_000028.JPG,04_26_WF_000029.JPG,04_26_WF_000030.JPG,4,26,1,1,3,1,1,3,1,1
31428301,7,8,1,4,SOMETHINGHERE,5,0.625,0.714285714,NA,NA,NA,NA,NA,NA,NA,NA,NA,NA,NA,155714801,anvon15,123.17,1,T0,NA,"list(list(choice = ""SOMETHINGHERE"", answers = list(), filters = list()))",1,1,SOMETHINGHERE,NA,NA,NA,NA,NA,NA,NA,NA,NA,NA,NA,NA,NA,NA,31428301,Pine ,WF,04_26_WF_000031.JPG,04_26_WF_000032.JPG,04_26_WF_000033.JPG,4,26,1,1,7,1,1,8,4,1
31428302,4,4,1,1,DEERWHITETAILED,4,1,1,1,1,1,0,0,0,0,0,0,0,1,155213589,barthelmess,123.17,1,T0,NA,"list(list(choice = ""DEERWHITETAILED"", answers = list(HOWMANY = ""1"", SNOWDEPTH = ""1020CM"", ANTLERSPRESENT = ""NO"", PRECIPITATIONRAINSNOW = ""NO"", WHATBEHAVIORSDOYOUSEE = list(""WALKINGRUNNING"")), filters = list()))",1,1,DEERWHITETAILED,NA,1,1020CM,NA,NO,NO,0,0,0,0,0,0,0,1,31428302,Pine ,WF,04_26_WF_000034.JPG,04_26_WF_000035.JPG,04_26_WF_000036.JPG,4,26,1,1,4,1,1,4,1,1
31428303,3,3,1,1,DOMESTICDOG,3,1,1,1,1,1,0,0,0,0,0,0,0,1,155213512,keandy16,123.17,1,T0,NA,"list(list(choice = ""DOMESTICDOG"", answers = list(HOWMANY = ""1"", SNOWDEPTH = ""010CM"", YOUNGPRESENT = ""NO"", PRECIPITATIONRAINSNOW = ""NO"", WHATBEHAVIORSDOYOUSEE = list(""WALKINGRUNNING"")), filters = list()))",1,1,DOMESTICDOG,NA,1,010CM,NO,NA,NO,0,0,0,0,0,0,0,1,31428303,Pine ,WF,04_26_WF_000037.JPG,04_26_WF_000038.JPG,04_26_WF_000039.JPG,4,26,1,1,3,1,1,3,1,1
31428304,1,1,1,1,COYOTE,1,1,1,1,1,1,0,0,0,0,0,0,0,1,156715742,seauch15,123.17,1,T0,NA,"list(list(choice = ""COYOTE"", answers = list(HOWMANY = ""1"", SNOWDEPTH = ""010CM"", YOUNGPRESENT = ""NO"", PRECIPITATIONRAINSNOW = ""NO"", WHATBEHAVIORSDOYOUSEE = list(""WALKINGRUNNING"")), filters = list(TYPE = ""DOGLIKECARNIVORE"")))",1,1,COYOTE,NA,1,010CM,NO,NA,NO,0,0,0,0,0,0,0,1,31428304,Pine ,WF,04_26_WF_000040.JPG,04_26_WF_000041.JPG,04_26_WF_000042.JPG,4,26,1,1,1,1,1,1,1,1
31428305,5,5,1,1,HUMAN,5,1,1,1,1,1,0,0,0,0,0.2,0.4,0,0.8,155207338,barthelmess,123.17,1,T0,NA,"list(list(choice = ""HUMAN"", answers = list(HOWMANY = ""1"", SNOWDEPTH = ""010CM"", PRECIPITATIONRAINSNOW = ""NO"", WHATBEHAVIORSDOYOUSEE = list(""WALKINGRUNNING"")), filters = list()))",1,1,HUMAN,NA,1,010CM,NA,NA,NO,0,0,0,0,0,0,0,1,31428305,Pine ,WF,04_26_WF_000043.JPG,04_26_WF_000044.JPG,04_26_WF_000045.JPG,4,26,1,1,5,1,1,5,1,1
31428306,2,2,1,1,COYOTE,2,1,1,1,1,1,0,0,0,0,0,0,0,1,155205994,barthelmess,123.17,1,T0,NA,"list(list(choice = ""COYOTE"", answers = list(HOWMANY = ""1"", SNOWDEPTH = ""2030CM"", YOUNGPRESENT = ""NO"", PRECIPITATIONRAINSNOW = ""NO"", WHATBEHAVIORSDOYOUSEE = list(""WALKINGRUNNING"")), filters = list()))",1,1,COYOTE,NA,1,2030CM,NO,NA,NO,0,0,0,0,0,0,0,1,31428306,Pine ,WF,04_26_WF_000046.JPG,04_26_WF_000047.JPG,04_26_WF_000048.JPG,4,26,1,1,2,1,1,2,1,1
31428307,1,1,1,1,NOTHINGHERE,1,1,1,NA,NA,NA,NA,NA,NA,NA,NA,NA,NA,NA,156655409,keandy16,123.17,1,T0,NA,"list(list(choice = ""NOTHINGHERE"", answers = list(), filters = list()))",1,1,NOTHINGHERE,NA,NA,NA,NA,NA,NA,NA,NA,NA,NA,NA,NA,NA,NA,31428307,Pine ,WF,04_26_WF_000049.JPG,04_26_WF_000050.JPG,04_26_WF_000051.JPG,4,26,1,1,1,1,1,1,1,1
31428308,4,4,1,1,SOMETHINGHERE,4,1,1,NA,NA,NA,NA,NA,NA,NA,NA,NA,NA,NA,154689291,not-logged-in-ea8b6654dd2e422db430,123.17,1,T0,NA,"list(list(choice = ""SOMETHINGHERE"", answers = list(), filters = list()))",1,1,SOMETHINGHERE,NA,NA,NA,NA,NA,NA,NA,NA,NA,NA,NA,NA,NA,NA,31428308,Pine ,DEG,08_23_DEG_000001.JPG,08_23_DEG_000002.JPG,08_23_DEG_000003.JPG,8,23,1,1,4,1,1,4,1,1
31428309,3,3,1,1,DEERWHITETAILED,3,1,1,NA,NA,NA,0,0,0,0.333333333,0,0,0.333333333,0.666666667,156719152,seauch15,123.17,1,T0,NA,"list(list(choice = ""DEERWHITETAILED"", answers = list(HOWMANY = ""1"", SNOWDEPTH = ""1020CM"", YOUNGPRESENT = ""NO"", ANTLERSPRESENT = ""NO"", PRECIPITATIONRAINSNOW = ""NO"", WHATBEHAVIORSDOYOUSEE = list(""WALKINGRUNNING"", ""SITTINGSTANDINGLYING"")), filters = list()))",1,1,DEERWHITETAILED,NA,1,1020CM,NO,NO,NO,0,0,0,0,0,0,1,1,31428309,Pine ,DEG,08_23_DEG_000004.JPG,08_23_DEG_000005.JPG,08_23_DEG_000006.JPG,8,23,1,1,3,1,1,3,1,1
31428310,4,4,1,2,SOMETHINGHERE,3,0.75,0.75,NA,NA,NA,NA,NA,NA,NA,NA,NA,NA,NA,156491692,brigidbarstow,123.17,1,T0,NA,"list(list(choice = ""COTTONTAILRABBIT"", answers = list(HOWMANY = ""1"", SNOWDEPTH = ""1020CM"", YOUNGPRESENT = ""NO"", PRECIPITATIONRAINSNOW = ""YES"", WHATBEHAVIORSDOYOUSEE = list(""WALKINGRUNNING"")), filters = list()))",1,1,COTTONTAILRABBIT,NA,1,1020CM,NO,NA,YES,0,0,0,0,0,0,0,1,31428310,Pine ,DEG,08_23_DEG_000007.JPG,08_23_DEG_000008.JPG,08_23_DEG_000009.JPG,8,23,1,1,4,1,1,4,2,1
31428311,3,3,1,1,NOTHINGHERE,3,1,1,NA,NA,NA,NA,NA,NA,NA,NA,NA,NA,NA,156308389,LJKinsey,123.17,1,T0,NA,"list(list(choice = ""NOTHINGHERE"", answers = list(), filters = list()))",1,1,NOTHINGHERE,NA,NA,NA,NA,NA,NA,NA,NA,NA,NA,NA,NA,NA,NA,31428311,Pine ,DEG,08_23_DEG_000010.JPG,08_23_DEG_000011.JPG,08_23_DEG_000012.JPG,8,23,1,1,3,1,1,3,1,1
31428312,7,7,1,2,SNOWSHOEHARE,4,0.571428571,0.571428571,1,1,1,0,0,0,0,0,0,0.25,1,155219195,not-logged-in-5ceb81b0867e229aead2,123.17,1,T0,NA,"list(list(choice = ""SNOWSHOEHARE"", answers = list(HOWMANY = ""1"", SNOWDEPTH = ""010CM"", YOUNGPRESENT = ""NO"", PRECIPITATIONRAINSNOW = ""NO"", WHATBEHAVIORSDOYOUSEE = list(""WALKINGRUNNING"")), filters = list()))",1,1,SNOWSHOEHARE,NA,1,010CM,NO,NA,NO,0,0,0,0,0,0,0,1,31428312,Pine ,DEG,08_23_DEG_000013.JPG,08_23_DEG_000014.JPG,08_23_DEG_000015.JPG,8,23,1,1,7,1,1,7,2,1
31428313,5,5,1,1,DEERWHITETAILED,5,1,1,1,1,1,0,0,0,0,0,0,0,1,156034436,keandy16,123.17,1,T0,NA,"list(list(choice = ""DEERWHITETAILED"", answers = list(HOWMANY = ""1"", SNOWDEPTH = ""1020CM"", YOUNGPRESENT = ""NO"", ANTLERSPRESENT = ""YES"", PRECIPITATIONRAINSNOW = ""YES"", WHATBEHAVIORSDOYOUSEE = list(""WALKINGRUNNING"")), filters = list()))",1,1,DEERWHITETAILED,NA,1,1020CM,NO,YES,YES,0,0,0,0,0,0,0,1,31428313,Pine ,WF,09_25_WF_000001.JPG,09_25_WF_000002.JPG,09_25_WF_000003.JPG,9,25,1,1,5,1,1,5,1,1
31428314,6,6,1,1,SQUIRRELGRAY,6,1,1,1,1,1,0,0,0,0,0,0,0.8,0.2,154687895,MWillis875,123.17,1,T0,NA,"list(list(choice = ""SQUIRRELGRAY"", answers = list(HOWMANY = ""1"", SNOWDEPTH = ""010CM"", YOUNGPRESENT = ""NO"", PRECIPITATIONRAINSNOW = ""NO"", WHATBEHAVIORSDOYOUSEE = list(""SITTINGSTANDINGLYING"")), filters = list()))",1,1,SQUIRRELGRAY,NA,1,010CM,NO,NA,NO,0,0,0,0,0,0,1,0,31428314,Pine ,WF,09_25_WF_000004.JPG,09_25_WF_000005.JPG,09_25_WF_000006.JPG,9,25,1,1,6,1,1,6,1,1
31428315,4,4,1,1,DEERWHITETAILED,4,1,1,1,1,1,0,0,0,0.5,0,0,0.75,0,155943409,anvon15,123.17,1,T0,NA,"list(list(choice = ""DEERWHITETAILED"", answers = list(HOWMANY = ""1"", SNOWDEPTH = ""2030CM"", YOUNGPRESENT = ""NO"", ANTLERSPRESENT = ""NO"", PRECIPITATIONRAINSNOW = ""YES"", WHATBEHAVIORSDOYOUSEE = list(""FORAGINGEATING"", ""SITTINGSTANDINGLYING"")), filters = list()))",1,1,DEERWHITETAILED,NA,1,2030CM,NO,NO,YES,0,0,0,1,0,0,1,0,31428315,Deciduous ,BC,11_13_BC_000002.JPG,11_13_BC_000001.JPG,11_13_BC_000003.JPG,11,13,1,1,4,1,1,4,1,1
31428316,5,5,1,1,DEERWHITETAILED,5,1,1,2,1,2,0,0,0,0.4,0,0,0,0.8,154690832,abuckley2681,123.17,1,T0,NA,"list(list(choice = ""DEERWHITETAILED"", answers = list(HOWMANY = ""2"", SNOWDEPTH = ""1020CM"", YOUNGPRESENT = ""NO"", ANTLERSPRESENT = ""NO"", PRECIPITATIONRAINSNOW = ""YES"", WHATBEHAVIORSDOYOUSEE = list(""WALKINGRUNNING"")), filters = list()))",1,1,DEERWHITETAILED,NA,2,1020CM,NO,NO,YES,0,0,0,0,0,0,0,1,31428316,Deciduous ,BC,11_13_BC_000004.JPG,11_13_BC_000005.JPG,11_13_BC_000006.JPG,11,13,1,1,5,1,1,5,1,1
31428317,5,5,1,1,NOTHINGHERE,5,1,1,NA,NA,NA,NA,NA,NA,NA,NA,NA,NA,NA,154693615,MWillis875,123.17,1,T0,NA,"list(list(choice = ""NOTHINGHERE"", answers = list(), filters = list()))",1,1,NOTHINGHERE,NA,NA,NA,NA,NA,NA,NA,NA,NA,NA,NA,NA,NA,NA,31428317,Deciduous ,BC,11_13_BC_000007.JPG,11_13_BC_000008.JPG,11_13_BC_000009.JPG,11,13,1,1,5,1,1,5,1,1
31428318,6,6,1,1,NOTHINGHERE,6,1,1,NA,NA,NA,NA,NA,NA,NA,NA,NA,NA,NA,155212878,barthelmess,123.17,1,T0,NA,"list(list(choice = ""NOTHINGHERE"", answers = list(), filters = list()))",1,1,NOTHINGHERE,NA,NA,NA,NA,NA,NA,NA,NA,NA,NA,NA,NA,NA,NA,31428318,Deciduous ,BC,11_13_BC_000010.JPG,11_13_BC_000011.JPG,11_13_BC_000012.JPG,11,13,1,1,6,1,1,6,1,1
31428319,5,5,1,2,SOMETHINGHERE,4,0.8,0.8,NA,NA,NA,NA,NA,NA,NA,NA,NA,NA,NA,154695400,Hartk,123.17,1,T0,NA,"list(list(choice = ""SOMETHINGHERE"", answers = list(), filters = list()))",1,1,SOMETHINGHERE,NA,NA,NA,NA,NA,NA,NA,NA,NA,NA,NA,NA,NA,NA,31428319,Deciduous ,BC,11_13_BC_000013.JPG,11_13_BC_000014.JPG,11_13_BC_000015.JPG,11,13,1,1,5,1,1,5,2,1
31428320,2,3,2,2,SOMETHINGHERE,2,0.666666667,1,NA,NA,NA,NA,NA,NA,NA,NA,NA,NA,NA,155709993,anvon15,123.17,1,T0,NA,"list(list(choice = ""SOMETHINGHERE"", answers = list(), filters = list()))",1,1,SOMETHINGHERE,NA,NA,NA,NA,NA,NA,NA,NA,NA,NA,NA,NA,NA,NA,31428320,Deciduous ,BC,11_13_BC_000016.JPG,11_13_BC_000017.JPG,11_13_BC_000018.JPG,11,13,1,1,2,1,1,3,2,2
31428321,3,3,1,1,SQUIRRELGRAY,3,1,1,1,1,1,0,0,0,0,0,0,0.666666667,0.333333333,155952548,anvon15,123.17,1,T0,NA,"list(list(choice = ""SQUIRRELGRAY"", answers = list(HOWMANY = ""1"", SNOWDEPTH = ""010CM"", YOUNGPRESENT = ""NO"", PRECIPITATIONRAINSNOW = ""NO"", WHATBEHAVIORSDOYOUSEE = list(""SITTINGSTANDINGLYING"")), filters = list()))",1,1,SQUIRRELGRAY,NA,1,010CM,NO,NA,NO,0,0,0,0,0,0,1,0,31428321,Deciduous ,BC,11_13_BC_000019.JPG,11_13_BC_000020.JPG,11_13_BC_000021.JPG,11,13,1,1,3,1,1,3,1,1
31428322,6,6,1,1,SQUIRRELGRAY,6,1,1,1,1,1,0,0,0,0.166666667,0,0,0,1,154695634,Hartk,123.17,1,T0,NA,"list(list(choice = ""SQUIRRELGRAY"", answers = list(HOWMANY = ""1"", SNOWDEPTH = ""010CM"", YOUNGPRESENT = ""NO"", PRECIPITATIONRAINSNOW = ""NO"", WHATBEHAVIORSDOYOUSEE = list(""WALKINGRUNNING"")), filters = list()))",1,1,SQUIRRELGRAY,NA,1,010CM,NO,NA,NO,0,0,0,0,0,0,0,1,31428322,Deciduous ,BC,11_13_BC_000022.JPG,11_13_BC_000023.JPG,11_13_BC_000024.JPG,11,13,1,1,6,1,1,6,1,1
31428323,5,5,1,2,SQUIRRELGRAY,4,0.8,0.8,1,1,1,0,0,0,0,0,0,0,1,153664300,barthelmess,123.17,1,T0,NA,"list(list(choice = ""SQUIRRELGRAY"", answers = list(HOWMANY = ""1"", SNOWDEPTH = ""010CM"", YOUNGPRESENT = ""NO"", PRECIPITATIONRAINSNOW = ""NO"", WHATBEHAVIORSDOYOUSEE = list(""WALKINGRUNNING"")), filters = list()))",1,1,SQUIRRELGRAY,NA,1,010CM,NO,NA,NO,0,0,0,0,0,0,0,1,31428323,Deciduous ,BC,11_13_BC_000025.JPG,11_13_BC_000026.JPG,11_13_BC_000027.JPG,11,13,1,1,5,1,1,5,2,1
31428324,3,3,1,1,SQUIRRELGRAY,3,1,1,1,1,1,0,0,0,1,0,0,0.333333333,0,154693683,not-logged-in-a171f677a40edce0c0ab,123.17,1,T0,NA,"list(list(choice = ""SQUIRRELGRAY"", answers = list(HOWMANY = ""1"", SNOWDEPTH = ""010CM"", YOUNGPRESENT = ""NO"", PRECIPITATIONRAINSNOW = ""NO"", WHATBEHAVIORSDOYOUSEE = list(""FORAGINGEATING"")), filters = list()))",1,1,SQUIRRELGRAY,NA,1,010CM,NO,NA,NO,0,0,0,1,0,0,0,0,31428324,Deciduous ,BC,11_13_BC_000028.JPG,11_13_BC_000029.JPG,11_13_BC_000030.JPG,11,13,1,1,3,1,1,3,1,1
31428325,3,3,1,1,SQUIRRELGRAY,3,1,1,1,1,1,0,0,0,0.666666667,0,0,0,1,156533778,kdmccr18,123.17,1,T0,NA,"list(list(choice = ""SQUIRRELGRAY"", answers = list(HOWMANY = ""1"", SNOWDEPTH = ""010CM"", YOUNGPRESENT = ""NO"", PRECIPITATIONRAINSNOW = ""NO"", WHATBEHAVIORSDOYOUSEE = list(""FORAGINGEATING"", ""WALKINGRUNNING"")), filters = list()))",1,1,SQUIRRELGRAY,NA,1,010CM,NO,NA,NO,0,0,0,1,0,0,0,1,31428325,Deciduous ,BC,11_13_BC_000031.JPG,11_13_BC_000032.JPG,11_13_BC_000033.JPG,11,13,1,1,3,1,1,3,1,1
31428326,3,3,1,1,SQUIRRELGRAY,3,1,1,1,1,1,0,0,0,0.666666667,0,0,0,0.666666667,156309967,LJKinsey,123.17,1,T0,NA,"list(list(choice = ""SQUIRRELGRAY"", answers = list(HOWMANY = ""1"", SNOWDEPTH = ""010CM"", YOUNGPRESENT = ""NO"", PRECIPITATIONRAINSNOW = ""NO"", WHATBEHAVIORSDOYOUSEE = list(""WALKINGRUNNING"")), filters = list()))",1,1,SQUIRRELGRAY,NA,1,010CM,NO,NA,NO,0,0,0,0,0,0,0,1,31428326,Deciduous ,BC,11_13_BC_000034.JPG,11_13_BC_000035.JPG,11_13_BC_000036.JPG,11,13,1,1,3,1,1,3,1,1
31428327,5,5,1,1,NOTHINGHERE,5,1,1,NA,NA,NA,NA,NA,NA,NA,NA,NA,NA,NA,155941264,anvon15,123.17,1,T0,NA,"list(list(choice = ""NOTHINGHERE"", answers = list(), filters = list()))",1,1,NOTHINGHERE,NA,NA,NA,NA,NA,NA,NA,NA,NA,NA,NA,NA,NA,NA,31428327,Deciduous ,BC,11_13_BC_000037.JPG,11_13_BC_000038.JPG,11_13_BC_000039.JPG,11,13,1,1,5,1,1,5,1,1
31428328,5,5,1,1,SQUIRRELGRAY,5,1,1,1,1,1,0,0,0,0.4,0,0,0,1,154694805,MWillis875,123.17,1,T0,NA,"list(list(choice = ""SQUIRRELGRAY"", answers = list(HOWMANY = ""1"", SNOWDEPTH = ""010CM"", YOUNGPRESENT = ""NO"", PRECIPITATIONRAINSNOW = ""NO"", WHATBEHAVIORSDOYOUSEE = list(""WALKINGRUNNING"")), filters = list()))",1,1,SQUIRRELGRAY,NA,1,010CM,NO,NA,NO,0,0,0,0,0,0,0,1,31428328,Deciduous ,BC,11_13_BC_000040.JPG,11_13_BC_000041.JPG,11_13_BC_000042.JPG,11,13,1,1,5,1,1,5,1,1
31428329,5,5,1,2,SOMETHINGHERE,4,0.8,0.8,NA,NA,NA,NA,NA,NA,NA,NA,NA,NA,NA,155946301,anvon15,123.17,1,T0,NA,"list(list(choice = ""SOMETHINGHERE"", answers = list(), filters = list()))",1,1,SOMETHINGHERE,NA,NA,NA,NA,NA,NA,NA,NA,NA,NA,NA,NA,NA,NA,31428329,Deciduous ,BC,11_13_BC_000043.JPG,11_13_BC_000044.JPG,11_13_BC_000045.JPG,11,13,1,1,5,1,1,5,2,1
31428330,4,4,1,1,PORCUPINE,4,1,1,1,1,1,0,0,0,0,0,0,0,1,155940337,anvon15,123.17,1,T0,NA,"list(list(choice = ""PORCUPINE"", answers = list(HOWMANY = ""1"", SNOWDEPTH = ""010CM"", YOUNGPRESENT = ""NO"", PRECIPITATIONRAINSNOW = ""NO"", WHATBEHAVIORSDOYOUSEE = list(""WALKINGRUNNING"")), filters = list()))",1,1,PORCUPINE,NA,1,010CM,NO,NA,NO,0,0,0,0,0,0,0,1,31428330,Deciduous ,BC,11_13_BC_000046.JPG,11_13_BC_000047.JPG,11_13_BC_000048.JPG,11,13,1,1,4,1,1,4,1,1
31428331,5,5,1,1,PORCUPINE,5,1,1,1,1,1,1,0,0,0,0,0,0,0,155711069,anvon15,123.17,1,T0,NA,"list(list(choice = ""PORCUPINE"", answers = list(HOWMANY = ""1"", SNOWDEPTH = ""1020CM"", YOUNGPRESENT = ""NO"", PRECIPITATIONRAINSNOW = ""NO"", WHATBEHAVIORSDOYOUSEE = list(""CLIMBING"")), filters = list()))",1,1,PORCUPINE,NA,1,1020CM,NO,NA,NO,1,0,0,0,0,0,0,0,31428331,Deciduous ,BC,11_13_BC_000049.JPG,11_13_BC_000050.JPG,11_13_BC_000051.JPG,11,13,1,1,5,1,1,5,1,1
31428332,4,4,1,1,SQUIRRELGRAY,4,1,1,NA,NA,NA,0,0.333333333,0,0.333333333,0,0,0,0.666666667,155219215,not-logged-in-7c1b6498a0e76856e726,123.17,1,T0,NA,"list(list(choice = ""SQUIRRELGRAY"", answers = list(), filters = list()))",1,1,SQUIRRELGRAY,NA,NA,NA,NA,NA,NA,NA,NA,NA,NA,NA,NA,NA,NA,31428332,Deciduous ,BC,11_13_BC_000052.JPG,11_13_BC_000053.JPG,11_13_BC_000054.JPG,11,13,1,1,4,1,1,4,1,1
31428333,1,1,1,1,SQUIRRELGRAY,1,1,1,1,1,1,0,0,0,0,0,0,0,1,155208069,barthelmess,123.17,1,T0,NA,"list(list(choice = ""SOMETHINGHERE"", answers = list(), filters = list()))",1,1,SOMETHINGHERE,NA,NA,NA,NA,NA,NA,NA,NA,NA,NA,NA,NA,NA,NA,31428333,Deciduous ,BC,11_13_BC_000055.JPG,11_13_BC_000056.JPG,11_13_BC_000057.JPG,11,13,1,1,2,1,1,2,2,1
31428334,3,3,1,1,NOTHINGHERE,3,1,1,NA,NA,NA,NA,NA,NA,NA,NA,NA,NA,NA,153728082,micheleroberge,123.17,1,T0,NA,"list(list(choice = ""NOTHINGHERE"", answers = list(), filters = list()))",1,1,NOTHINGHERE,NA,NA,NA,NA,NA,NA,NA,NA,NA,NA,NA,NA,NA,NA,31428334,Deciduous ,BC,11_13_BC_000058.JPG,11_13_BC_000059.JPG,11_13_BC_000060.JPG,11,13,1,1,3,1,1,3,1,1
31428335,4,4,1,1,SQUIRRELGRAY,4,1,1,1,1,1,0,0,0,0.25,0,0,0,1,155882671,barthelmess,123.17,1,T0,NA,"list(list(choice = ""SQUIRRELGRAY"", answers = list(HOWMANY = ""1"", SNOWDEPTH = ""1020CM"", PRECIPITATIONRAINSNOW = ""NO"", WHATBEHAVIORSDOYOUSEE = list(""WALKINGRUNNING"", ""FORAGINGEATING"")), filters = list()))",1,1,SQUIRRELGRAY,NA,1,1020CM,NA,NA,NO,0,0,0,1,0,0,0,1,31428335,Deciduous ,BC,11_13_BC_000061.JPG,11_13_BC_000062.JPG,11_13_BC_000063.JPG,11,13,1,1,4,1,1,4,1,1
31428336,3,3,1,2,SQUIRRELGRAY,2,0.666666667,0.666666667,1,1,1,0,0,0,0,0,0,0.5,0.5,156435767,brigidbarstow,123.17,1,T0,NA,"list(list(choice = ""SQUIRRELGRAY"", answers = list(HOWMANY = ""1"", SNOWDEPTH = ""1020CM"", YOUNGPRESENT = ""NO"", PRECIPITATIONRAINSNOW = ""NO"", WHATBEHAVIORSDOYOUSEE = list(""SITTINGSTANDINGLYING"")), filters = list()))",1,1,SQUIRRELGRAY,NA,1,1020CM,NO,NA,NO,0,0,0,0,0,0,1,0,31428336,Deciduous ,BC,11_13_BC_000064.JPG,11_13_BC_000065.JPG,11_13_BC_000066.JPG,11,13,1,1,3,1,1,3,2,1
31428337,4,4,1,1,SQUIRRELGRAY,4,1,1,1,1,1,0,0,0,0,0,0,0,1,153927615,micheleroberge,123.17,1,T0,NA,"list(list(choice = ""SQUIRRELGRAY"", answers = list(HOWMANY = ""1"", SNOWDEPTH = ""1020CM"", YOUNGPRESENT = ""NO"", PRECIPITATIONRAINSNOW = ""NO"", WHATBEHAVIORSDOYOUSEE = list(""WALKINGRUNNING"")), filters = list()))",1,1,SQUIRRELGRAY,NA,1,1020CM,NO,NA,NO,0,0,0,0,0,0,0,1,31428337,Deciduous ,BC,11_13_BC_000067.JPG,11_13_BC_000068.JPG,11_13_BC_000069.JPG,11,13,1,1,4,1,1,4,1,1
31428338,2,2,1,1,PORCUPINE,2,1,1,1,1,1,0,0,0,0,0,0,0,1,156486098,kdmccr18,123.17,1,T0,NA,"list(list(choice = ""PORCUPINE"", answers = list(HOWMANY = ""1"", SNOWDEPTH = ""1020CM"", YOUNGPRESENT = ""NO"", PRECIPITATIONRAINSNOW = ""NO"", WHATBEHAVIORSDOYOUSEE = list(""WALKINGRUNNING"")), filters = list()))",1,1,PORCUPINE,NA,1,1020CM,NO,NA,NO,0,0,0,0,0,0,0,1,31428338,Deciduous ,BC,11_13_BC_000070.JPG,11_13_BC_000071.JPG,11_13_BC_000072.JPG,11,13,1,1,2,1,1,2,1,1
31428339,6,6,1,1,PORCUPINE,6,1,1,1,1,1,0,0,0,0,0,0,0,1,155716479,anvon15,123.17,1,T0,NA,"list(list(choice = ""PORCUPINE"", answers = list(HOWMANY = ""1"", SNOWDEPTH = ""010CM"", YOUNGPRESENT = ""NO"", PRECIPITATIONRAINSNOW = ""NO"", WHATBEHAVIORSDOYOUSEE = list(""WALKINGRUNNING"")), filters = list()))",1,1,PORCUPINE,NA,1,010CM,NO,NA,NO,0,0,0,0,0,0,0,1,31428339,Deciduous ,BC,11_13_BC_000073.JPG,11_13_BC_000074.JPG,11_13_BC_000075.JPG,11,13,1,1,6,1,1,6,1,1
31428340,3,3,1,1,SQUIRRELGRAY,3,1,1,1,1,1,0,0,0,0,0,0,0,1,155715142,anvon15,123.17,1,T0,NA,"list(list(choice = ""SQUIRRELGRAY"", answers = list(HOWMANY = ""1"", SNOWDEPTH = ""010CM"", YOUNGPRESENT = ""NO"", PRECIPITATIONRAINSNOW = ""NO"", WHATBEHAVIORSDOYOUSEE = list(""WALKINGRUNNING"")), filters = list()))",1,1,SQUIRRELGRAY,NA,1,010CM,NO,NA,NO,0,0,0,0,0,0,0,1,31428340,Deciduous ,BC,11_13_BC_000076.JPG,11_13_BC_000077.JPG,11_13_BC_000078.JPG,11,13,1,1,3,1,1,3,1,1
31428341,6,6,1,1,SQUIRRELGRAY,6,1,1,1,1,1,0,0,0,0.5,0,0,0.5,0.833333333,155774737,keandy16,123.17,1,T0,NA,"list(list(choice = ""SQUIRRELGRAY"", answers = list(HOWMANY = ""1"", SNOWDEPTH = ""010CM"", YOUNGPRESENT = ""NO"", PRECIPITATIONRAINSNOW = ""NO"", WHATBEHAVIORSDOYOUSEE = list(""WALKINGRUNNING"", ""FORAGINGEATING"")), filters = list()))",1,1,SQUIRRELGRAY,NA,1,010CM,NO,NA,NO,0,0,0,1,0,0,0,1,31428341,Deciduous ,BC,11_13_BC_000079.JPG,11_13_BC_000080.JPG,11_13_BC_000081.JPG,11,13,1,1,6,1,1,6,1,1
31428342,3,3,1,1,PORCUPINE,3,1,1,1,1,1,0,0,0,0,0,0,0,1,156489349,kdmccr18,123.17,1,T0,NA,"list(list(choice = ""PORCUPINE"", answers = list(HOWMANY = ""1"", SNOWDEPTH = ""010CM"", YOUNGPRESENT = ""NO"", PRECIPITATIONRAINSNOW = ""NO"", WHATBEHAVIORSDOYOUSEE = list(""WALKINGRUNNING"")), filters = list()))",1,1,PORCUPINE,NA,1,010CM,NO,NA,NO,0,0,0,0,0,0,0,1,31428342,Deciduous ,BC,11_13_BC_000082.JPG,11_13_BC_000083.JPG,11_13_BC_000084.JPG,11,13,1,1,3,1,1,3,1,1
31428343,1,1,1,1,NOTHINGHERE,1,1,1,NA,NA,NA,NA,NA,NA,NA,NA,NA,NA,NA,156850872,emmaoldow,123.17,1,T0,NA,"list(list(choice = ""NOTHINGHERE"", answers = list(), filters = list()))",1,1,NOTHINGHERE,NA,NA,NA,NA,NA,NA,NA,NA,NA,NA,NA,NA,NA,NA,31428343,Deciduous ,BC,11_13_BC_000085.JPG,11_13_BC_000086.JPG,11_13_BC_000087.JPG,11,13,1,1,1,1,1,1,1,1
31428344,5,5,1,1,SQUIRRELGRAY,5,1,1,1,1,1,0,0,0,0.2,0,0,0.2,0.6,154687083,MWillis875,123.17,1,T0,NA,"list(list(choice = ""SQUIRRELGRAY"", answers = list(HOWMANY = ""1"", SNOWDEPTH = ""1020CM"", YOUNGPRESENT = ""NO"", PRECIPITATIONRAINSNOW = ""YES"", WHATBEHAVIORSDOYOUSEE = list(""SITTINGSTANDINGLYING"")), filters = list()))",1,1,SQUIRRELGRAY,NA,1,1020CM,NO,NA,YES,0,0,0,0,0,0,1,0,31428344,Deciduous ,BC,11_13_BC_000088.JPG,11_13_BC_000089.JPG,11_13_BC_000090.JPG,11,13,1,1,5,1,1,5,1,1
31428345,4,4,1,1,SQUIRRELGRAY,4,1,1,1,1,1,0,0,0,0.75,0,0,0,0.75,155770592,keandy16,123.17,1,T0,NA,"list(list(choice = ""SQUIRRELGRAY"", answers = list(HOWMANY = ""1"", SNOWDEPTH = ""010CM"", YOUNGPRESENT = ""NO"", PRECIPITATIONRAINSNOW = ""NO"", WHATBEHAVIORSDOYOUSEE = list(""WALKINGRUNNING"", ""FORAGINGEATING"")), filters = list()))",1,1,SQUIRRELGRAY,NA,1,010CM,NO,NA,NO,0,0,0,1,0,0,0,1,31428345,Deciduous ,BC,11_13_BC_000091.JPG,11_13_BC_000092.JPG,11_13_BC_000093.JPG,11,13,1,1,4,1,1,4,1,1
31428346,3,3,1,1,SQUIRRELGRAY,3,1,1,1,1,1,0,0,0,1,0,0,0.333333333,0,155948222,anvon15,123.17,1,T0,NA,"list(list(choice = ""SQUIRRELGRAY"", answers = list(HOWMANY = ""1"", SNOWDEPTH = ""010CM"", YOUNGPRESENT = ""NO"", PRECIPITATIONRAINSNOW = ""NO"", WHATBEHAVIORSDOYOUSEE = list(""SITTINGSTANDINGLYING"", ""FORAGINGEATING"")), filters = list()))",1,1,SQUIRRELGRAY,NA,1,010CM,NO,NA,NO,0,0,0,1,0,0,1,0,31428346,Deciduous ,BC,11_13_BC_000094.JPG,11_13_BC_000095.JPG,11_13_BC_000096.JPG,11,13,1,1,3,1,1,3,1,1
31428347,2,2,1,2,SQUIRRELGRAY,1,0.5,0.5,1,1,1,0,0,0,0,0,0,0,1,155943081,anvon15,123.17,1,T0,NA,"list(list(choice = ""NOTHINGHERE"", answers = list(), filters = list()))",1,1,NOTHINGHERE,NA,NA,NA,NA,NA,NA,NA,NA,NA,NA,NA,NA,NA,NA,31428347,Deciduous ,BC,11_13_BC_000097.JPG,11_13_BC_000098.JPG,11_13_BC_000099.JPG,11,13,1,1,2,1,1,2,2,1
31428348,4,4,1,1,SQUIRRELGRAY,4,1,1,1,1,1,1,0,0,0,0,0,0,0,155908130,BMAC965,123.17,1,T0,NA,"list(list(choice = ""SQUIRRELGRAY"", answers = list(HOWMANY = ""1"", SNOWDEPTH = ""1020CM"", YOUNGPRESENT = ""NO"", PRECIPITATIONRAINSNOW = ""NO"", WHATBEHAVIORSDOYOUSEE = list(""CLIMBING"")), filters = list()))",1,1,SQUIRRELGRAY,NA,1,1020CM,NO,NA,NO,1,0,0,0,0,0,0,0,31428348,Deciduous ,BC,11_13_BC_000100.JPG,11_13_BC_000101.JPG,11_13_BC_000102.JPG,11,13,1,1,4,1,1,4,1,1
31428349,7,7,1,1,NOTHINGHERE,7,1,1,NA,NA,NA,NA,NA,NA,NA,NA,NA,NA,NA,155717655,anvon15,123.17,1,T0,NA,"list(list(choice = ""NOTHINGHERE"", answers = list(), filters = list()))",1,1,NOTHINGHERE,NA,NA,NA,NA,NA,NA,NA,NA,NA,NA,NA,NA,NA,NA,31428349,Deciduous ,BC,11_13_BC_000103.JPG,11_13_BC_000104.JPG,11_13_BC_000105.JPG,11,13,1,1,7,1,1,7,1,1
31428350,2,2,1,1,NOTHINGHERE,2,1,1,NA,NA,NA,NA,NA,NA,NA,NA,NA,NA,NA,155906031,Donovan.Spaulding,123.17,1,T0,NA,"list(list(choice = ""NOTHINGHERE"", answers = list(), filters = list()))",1,1,NOTHINGHERE,NA,NA,NA,NA,NA,NA,NA,NA,NA,NA,NA,NA,NA,NA,31428350,Deciduous ,BC,11_13_BC_000106.JPG,11_13_BC_000107.JPG,11_13_BC_000108.JPG,11,13,1,1,2,1,1,2,1,1
31428351,4,4,1,2,SQUIRRELGRAY,3,0.75,0.75,1,1,1,0,0,0,0,0,0,1,0,155775176,keandy16,123.17,1,T0,NA,"list(list(choice = ""SQUIRRELGRAY"", answers = list(HOWMANY = ""1"", SNOWDEPTH = ""010CM"", YOUNGPRESENT = ""NO"", PRECIPITATIONRAINSNOW = ""NO"", WHATBEHAVIORSDOYOUSEE = list(""SITTINGSTANDINGLYING"")), filters = list()))",1,1,SQUIRRELGRAY,NA,1,010CM,NO,NA,NO,0,0,0,0,0,0,1,0,31428351,Deciduous ,BC,11_13_BC_000109.JPG,11_13_BC_000110.JPG,11_13_BC_000111.JPG,11,13,1,1,4,1,1,4,2,1
31428352,1,1,1,1,OTHERSMALLMAMMAL,1,1,1,1,1,1,0,0,0,0,0,0,0,1,155209931,keandy16,123.17,1,T0,NA,"list(list(choice = ""OTHERSMALLMAMMAL"", answers = list(HOWMANY = ""1"", SNOWDEPTH = ""010CM"", YOUNGPRESENT = ""NO"", PRECIPITATIONRAINSNOW = ""NO"", WHATBEHAVIORSDOYOUSEE = list(""WALKINGRUNNING"")), filters = list()))",1,1,OTHERSMALLMAMMAL,NA,1,010CM,NO,NA,NO,0,0,0,0,0,0,0,1,31428352,Deciduous ,BC,11_13_BC_000112.JPG,11_13_BC_000113.JPG,11_13_BC_000114.JPG,11,13,1,1,1,1,1,1,1,1
31428353,5,5,1,1,PORCUPINE,5,1,1,1,1,1,0,0,0,0,0,0,0.4,0.6,154693250,MWillis875,123.17,1,T0,NA,"list(list(choice = ""PORCUPINE"", answers = list(HOWMANY = ""1"", SNOWDEPTH = ""010CM"", YOUNGPRESENT = ""NO"", PRECIPITATIONRAINSNOW = ""NO"", WHATBEHAVIORSDOYOUSEE = list(""WALKINGRUNNING"")), filters = list()))",1,1,PORCUPINE,NA,1,010CM,NO,NA,NO,0,0,0,0,0,0,0,1,31428353,Deciduous ,BC,11_13_BC_000115.JPG,11_13_BC_000116.JPG,11_13_BC_000117.JPG,11,13,1,1,5,1,1,5,1,1
31428354,2,2,1,1,SQUIRRELGRAY,2,1,1,1,1,1,0,0,0,1,0,0,0,0,155868516,BMAC965,123.17,1,T0,NA,"list(list(choice = ""SQUIRRELGRAY"", answers = list(HOWMANY = ""1"", SNOWDEPTH = ""010CM"", YOUNGPRESENT = ""NO"", PRECIPITATIONRAINSNOW = ""NO"", WHATBEHAVIORSDOYOUSEE = list(""FORAGINGEATING"")), filters = list()))",1,1,SQUIRRELGRAY,NA,1,010CM,NO,NA,NO,0,0,0,1,0,0,0,0,31428354,Deciduous ,BC,11_13_BC_000121.JPG,11_13_BC_000122.JPG,11_13_BC_000123.JPG,11,13,1,1,2,1,1,2,1,1
31428355,3,3,1,3,NOTHINGHERE,1,0.333333333,0.333333333,NA,NA,NA,NA,NA,NA,NA,NA,NA,NA,NA,155881445,barthelmess,123.17,1,T0,NA,"list(list(choice = ""COTTONTAILRABBIT"", answers = list(HOWMANY = ""1"", SNOWDEPTH = ""010CM"", YOUNGPRESENT = ""NO"", PRECIPITATIONRAINSNOW = ""NO"", WHATBEHAVIORSDOYOUSEE = list(""WALKINGRUNNING"")), filters = list()))",1,1,COTTONTAILRABBIT,NA,1,010CM,NO,NA,NO,0,0,0,0,0,0,0,1,31428355,Deciduous ,BC,11_13_BC_000124.JPG,11_13_BC_000125.JPG,11_13_BC_000126.JPG,11,13,1,1,3,1,1,3,3,1
31428356,4,5,1,2,NOTHINGHERE,4,0.8,1,NA,NA,NA,NA,NA,NA,NA,NA,NA,NA,NA,156315715,anvon15,123.17,1,T0,NA,"list(list(choice = ""NOTHINGHERE"", answers = list(), filters = list()))",1,1,NOTHINGHERE,NA,NA,NA,NA,NA,NA,NA,NA,NA,NA,NA,NA,NA,NA,31428356,Deciduous ,BC,11_13_BC_000127.JPG,11_13_BC_000128.JPG,11_13_BC_000129.JPG,11,13,1,1,4,1,1,5,2,1
31428357,5,5,1,1,SQUIRRELGRAY,5,1,1,1,1,1,0,0,0,0.6,0,0,0.4,0.2,154693848,Hartk,123.17,1,T0,NA,"list(list(choice = ""SQUIRRELGRAY"", answers = list(HOWMANY = ""1"", SNOWDEPTH = ""010CM"", YOUNGPRESENT = ""NO"", PRECIPITATIONRAINSNOW = ""NO"", WHATBEHAVIORSDOYOUSEE = list(""SITTINGSTANDINGLYING"")), filters = list(TYPE = ""RODENTORRABBIT"")))",1,1,SQUIRRELGRAY,NA,1,010CM,NO,NA,NO,0,0,0,0,0,0,1,0,31428357,Deciduous ,BC,11_13_BC_000130.JPG,11_13_BC_000131.JPG,11_13_BC_000132.JPG,11,13,1,1,5,1,1,5,1,1
31428358,2,2,1,1,SQUIRRELGRAY,2,1,1,1,1,1,0,0,0,1,0,0,0.5,0.5,155907927,BMAC965,123.17,1,T0,NA,"list(list(choice = ""SQUIRRELGRAY"", answers = list(HOWMANY = ""1"", SNOWDEPTH = ""010CM"", YOUNGPRESENT = ""NO"", PRECIPITATIONRAINSNOW = ""NO"", WHATBEHAVIORSDOYOUSEE = list(""FORAGINGEATING"")), filters = list()))",1,1,SQUIRRELGRAY,NA,1,010CM,NO,NA,NO,0,0,0,1,0,0,0,0,31428358,Deciduous ,BC,11_13_BC_000133.JPG,11_13_BC_000134.JPG,11_13_BC_000135.JPG,11,13,1,1,2,1,1,2,1,1
31428359,3,3,1,1,NOTHINGHERE,3,1,1,NA,NA,NA,NA,NA,NA,NA,NA,NA,NA,NA,156310535,LJKinsey,123.17,1,T0,NA,"list(list(choice = ""NOTHINGHERE"", answers = list(), filters = list()))",1,1,NOTHINGHERE,NA,NA,NA,NA,NA,NA,NA,NA,NA,NA,NA,NA,NA,NA,31428359,Deciduous ,BC,11_13_BC_000136.JPG,11_13_BC_000137.JPG,11_13_BC_000138.JPG,11,13,1,1,3,1,1,3,1,1
31428360,1,1,1,1,TURKEY,1,1,1,1,1,1,0,0,0,0,0,0,0,1,156827014,meghankelly898,123.17,1,T0,NA,"list(list(choice = ""TURKEY"", answers = list(HOWMANY = ""1"", SNOWDEPTH = ""010CM"", YOUNGPRESENT = ""NO"", PRECIPITATIONRAINSNOW = ""NO"", WHATBEHAVIORSDOYOUSEE = list(""WALKINGRUNNING"")), filters = list()))",1,1,TURKEY,NA,1,010CM,NO,NA,NO,0,0,0,0,0,0,0,1,31428360,Deciduous ,BC,11_13_BC_000139.JPG,11_13_BC_000140.JPG,11_13_BC_000141.JPG,11,13,1,1,1,1,1,1,1,1
31428361,5,6,1,2,TURKEY,5,0.833333333,1,NA,NA,NA,0,0,0,0,0,0,0.25,0.75,154694387,not-logged-in-d0b06505b62640b2f255,123.17,1,T0,NA,"list(list(choice = ""TURKEY"", answers = list(), filters = list()), list(choice = ""VULTURE"", answers = list(HOWMANY = ""1"", SNOWDEPTH = ""010CM"", YOUNGPRESENT = ""NO"", PRECIPITATIONRAINSNOW = ""NO"", WHATBEHAVIORSDOYOUSEE = list(""WALKINGRUNNING"")), filters = list()))",2,1,TURKEY,NA,NA,NA,NA,NA,NA,NA,NA,NA,NA,NA,NA,NA,NA,31428361,Deciduous ,BC,11_13_BC_000142.JPG,11_13_BC_000143.JPG,11_13_BC_000144.JPG,11,13,1,1,5,2,2,6,2,1
31428362,3,3,1,1,BOBCAT,3,1,1,1,1,1,0,0,0,0,0,0,0,1,156406803,barthelmess,123.17,1,T0,NA,"list(list(choice = ""BOBCAT"", answers = list(HOWMANY = ""1"", SNOWDEPTH = ""1020CM"", YOUNGPRESENT = ""NO"", PRECIPITATIONRAINSNOW = ""NO"", WHATBEHAVIORSDOYOUSEE = list(""WALKINGRUNNING"")), filters = list()))",1,1,BOBCAT,NA,1,1020CM,NO,NA,NO,0,0,0,0,0,0,0,1,31428362,Deciduous ,BC,11_13_BC_000145.JPG,11_13_BC_000146.JPG,11_13_BC_000147.JPG,11,13,1,1,3,1,1,3,1,1
31428363,5,5,1,1,PORCUPINE,5,1,1,1,1,1,0,0,0,0,0,0,0,1,155945286,anvon15,123.17,1,T0,NA,"list(list(choice = ""PORCUPINE"", answers = list(HOWMANY = ""1"", SNOWDEPTH = ""010CM"", YOUNGPRESENT = ""NO"", PRECIPITATIONRAINSNOW = ""NO"", WHATBEHAVIORSDOYOUSEE = list(""WALKINGRUNNING"")), filters = list()))",1,1,PORCUPINE,NA,1,010CM,NO,NA,NO,0,0,0,0,0,0,0,1,31428363,Deciduous ,BC,11_13_BC_000148.JPG,11_13_BC_000149.JPG,11_13_BC_000150.JPG,11,13,1,1,5,1,1,5,1,1
31428364,2,2,1,1,PORCUPINE,2,1,1,NA,NA,NA,0,0,0,0,0,0,0,1,156642395,not-logged-in-68b972b33323bc96931d,123.17,1,T0,NA,"list(list(choice = ""PORCUPINE"", answers = list(), filters = list()))",1,1,PORCUPINE,NA,NA,NA,NA,NA,NA,NA,NA,NA,NA,NA,NA,NA,NA,31428364,Deciduous ,BC,11_13_BC_000151.JPG,11_13_BC_000152.JPG,11_13_BC_000153.JPG,11,13,1,1,2,1,1,2,1,1
31428365,4,4,1,2,SQUIRRELGRAY,3,0.75,0.75,1,1,1,0,0,0,0,0,0.333333333,0.333333333,0.666666667,156236892,LJKinsey,123.17,1,T0,NA,"list(list(choice = ""SQUIRRELGRAY"", answers = list(HOWMANY = ""1"", SNOWDEPTH = ""010CM"", YOUNGPRESENT = ""NO"", PRECIPITATIONRAINSNOW = ""NO"", WHATBEHAVIORSDOYOUSEE = list(""WALKINGRUNNING"", ""OTHER"")), filters = list()))",1,1,SQUIRRELGRAY,NA,1,010CM,NO,NA,NO,0,0,0,0,0,1,0,1,31428365,Deciduous ,BC,11_13_BC_000154.JPG,11_13_BC_000155.JPG,11_13_BC_000156.JPG,11,13,1,1,4,1,1,4,2,1
31428366,1,1,1,1,NOTHINGHERE,1,1,1,NA,NA,NA,NA,NA,NA,NA,NA,NA,NA,NA,156720823,seauch15,123.17,1,T0,NA,"list(list(choice = ""NOTHINGHERE"", answers = list(), filters = list()))",1,1,NOTHINGHERE,NA,NA,NA,NA,NA,NA,NA,NA,NA,NA,NA,NA,NA,NA,31428366,Deciduous ,BC,11_13_BC_000157.JPG,11_13_BC_000158.JPG,11_13_BC_000159.JPG,11,13,1,1,1,1,1,1,1,1
31428367,4,5,1,2,NOTHINGHERE,4,0.8,1,NA,NA,NA,NA,NA,NA,NA,NA,NA,NA,NA,155206679,barthelmess,123.17,1,T0,NA,"list(list(choice = ""NOTHINGHERE"", answers = list(), filters = list()))",1,1,NOTHINGHERE,NA,NA,NA,NA,NA,NA,NA,NA,NA,NA,NA,NA,NA,NA,31428367,Deciduous ,BC,11_13_BC_000160.JPG,11_13_BC_000161.JPG,11_13_BC_000162.JPG,11,13,1,1,4,1,1,5,2,1
31428368,3,3,1,1,PORCUPINE,3,1,1,NA,NA,NA,0,0,0,0.666666667,0,0.333333333,0,0,155209403,barthelmess,123.17,1,T0,NA,"list(list(choice = ""PORCUPINE"", answers = list(HOWMANY = ""1"", SNOWDEPTH = ""1020CM"", YOUNGPRESENT = ""NO"", PRECIPITATIONRAINSNOW = ""NO"", WHATBEHAVIORSDOYOUSEE = list(""FORAGINGEATING"")), filters = list()))",1,1,PORCUPINE,NA,1,1020CM,NO,NA,NO,0,0,0,1,0,0,0,0,31428368,Deciduous ,BC,11_13_BC_000163.JPG,11_13_BC_000164.JPG,11_13_BC_000165.JPG,11,13,1,1,3,1,1,3,1,1
31428369,4,4,1,4,OTHERSMALLMAMMAL,1,0.25,0.25,1,1,1,0,0,0,0,0,0,0,1,155992730,LJKinsey,123.17,1,T0,NA,"list(list(choice = ""SQUIRRELGRAY"", answers = list(HOWMANY = ""1"", SNOWDEPTH = ""010CM"", YOUNGPRESENT = ""NO"", PRECIPITATIONRAINSNOW = ""NO"", WHATBEHAVIORSDOYOUSEE = list(""WALKINGRUNNING"")), filters = list()))",1,1,SQUIRRELGRAY,NA,1,010CM,NO,NA,NO,0,0,0,0,0,0,0,1,31428369,Deciduous ,BC,11_13_BC_000166.JPG,11_13_BC_000167.JPG,11_13_BC_000168.JPG,11,13,1,1,4,1,1,4,4,1
31428370,4,4,1,1,WEASEL,4,1,1,1,1,1,0,0,0,0,0,0,0,1,153664075,barthelmess,123.17,1,T0,NA,"list(list(choice = ""WEASEL"", answers = list(HOWMANY = ""1"", SNOWDEPTH = ""1020CM"", YOUNGPRESENT = ""NO"", PRECIPITATIONRAINSNOW = ""NO"", WHATBEHAVIORSDOYOUSEE = list(""WALKINGRUNNING"")), filters = list()))",1,1,WEASEL,NA,1,1020CM,NO,NA,NO,0,0,0,0,0,0,0,1,31428370,Deciduous ,BC,11_13_BC_000169.JPG,11_13_BC_000170.JPG,11_13_BC_000171.JPG,11,13,1,1,4,1,1,4,1,1
31428371,3,3,1,1,SQUIRRELGRAY,3,1,1,1,1,1,0,0.333333333,0,0,0,0,0,0.666666667,155897649,not-logged-in-6f81ae374d09283ea787,123.17,1,T0,NA,"list(list(choice = ""SQUIRRELGRAY"", answers = list(HOWMANY = ""1"", SNOWDEPTH = ""2030CM"", YOUNGPRESENT = ""NO"", PRECIPITATIONRAINSNOW = ""NO"", WHATBEHAVIORSDOYOUSEE = list(""DIGGING"")), filters = list()))",1,1,SQUIRRELGRAY,NA,1,2030CM,NO,NA,NO,0,1,0,0,0,0,0,0,31428371,Deciduous ,BC,11_13_BC_000172.JPG,11_13_BC_000173.JPG,11_13_BC_000174.JPG,11,13,1,1,3,1,1,3,1,1
31428372,5,5,1,1,SQUIRRELGRAY,5,1,1,1,1,1,0,0,0,0,0,0,0,1,154693676,Hartk,123.17,1,T0,NA,"list(list(choice = ""SQUIRRELGRAY"", answers = list(HOWMANY = ""1"", SNOWDEPTH = ""3040CM"", YOUNGPRESENT = ""NO"", PRECIPITATIONRAINSNOW = ""NO"", WHATBEHAVIORSDOYOUSEE = list(""WALKINGRUNNING"")), filters = list(TYPE = ""RODENTORRABBIT"")))",1,1,SQUIRRELGRAY,NA,1,3040CM,NO,NA,NO,0,0,0,0,0,0,0,1,31428372,Deciduous ,BC,11_13_BC_000175.JPG,11_13_BC_000176.JPG,11_13_BC_000177.JPG,11,13,1,1,5,1,1,5,1,1
31428373,8,8,1,2,GROUSERUFFED,7,0.875,0.875,1,1,1,0,0,0,0,0,0,0.714285714,0.428571429,154691191,abuckley2681,123.17,1,T0,NA,"list(list(choice = ""GROUSERUFFED"", answers = list(HOWMANY = ""1"", SNOWDEPTH = ""1020CM"", YOUNGPRESENT = ""NO"", PRECIPITATIONRAINSNOW = ""NO"", WHATBEHAVIORSDOYOUSEE = list(""WALKINGRUNNING"")), filters = list()))",1,1,GROUSERUFFED,NA,1,1020CM,NO,NA,NO,0,0,0,0,0,0,0,1,31428373,Deciduous ,BC,11_13_BC_000178.JPG,11_13_BC_000179.JPG,11_13_BC_000180.JPG,11,13,1,1,8,1,1,8,2,1
31428374,5,5,1,3,FISHER,3,0.6,0.6,1,1,1,0,0,0,0,0,0.333333333,0.666666667,0,155209604,barthelmess,123.17,1,T0,NA,"list(list(choice = ""FISHER"", answers = list(HOWMANY = ""1"", YOUNGPRESENT = ""NO"", PRECIPITATIONRAINSNOW = ""NO"", WHATBEHAVIORSDOYOUSEE = list(""OTHER"")), filters = list()))",1,1,FISHER,NA,1,NA,NO,NA,NO,0,0,0,0,0,1,0,0,31428374,Deciduous ,BC,11_13_BC_000181.JPG,11_13_BC_000182.JPG,11_13_BC_000183.JPG,11,13,1,1,5,1,1,5,3,1
31428375,4,4,1,1,SQUIRRELGRAY,4,1,1,1,1,1,0,0,0,0.25,0,0,0,1,154689716,not-logged-in-42881cd7c1c2c2f4d1fc,123.17,1,T0,NA,"list(list(choice = ""SQUIRRELGRAY"", answers = list(HOWMANY = ""1"", SNOWDEPTH = ""1020CM"", YOUNGPRESENT = ""NO"", PRECIPITATIONRAINSNOW = ""YES"", WHATBEHAVIORSDOYOUSEE = list(""WALKINGRUNNING"", ""FORAGINGEATING"")), filters = list()))",1,1,SQUIRRELGRAY,NA,1,1020CM,NO,NA,YES,0,0,0,1,0,0,0,1,31428375,Deciduous ,BC,11_13_BC_000184.JPG,11_13_BC_000185.JPG,11_13_BC_000186.JPG,11,13,1,1,4,1,1,4,1,1
31428376,3,3,1,1,SQUIRRELGRAY,3,1,1,1,1,1,0,0,0,0,0,0,0,1,154695120,abuckley2681,123.17,1,T0,NA,"list(list(choice = ""SQUIRRELGRAY"", answers = list(HOWMANY = ""1"", SNOWDEPTH = ""010CM"", YOUNGPRESENT = ""NO"", PRECIPITATIONRAINSNOW = ""NO"", WHATBEHAVIORSDOYOUSEE = list(""WALKINGRUNNING"")), filters = list()))",1,1,SQUIRRELGRAY,NA,1,010CM,NO,NA,NO,0,0,0,0,0,0,0,1,31428376,Deciduous ,BC,11_13_BC_000187.JPG,11_13_BC_000188.JPG,11_13_BC_000189.JPG,11,13,1,1,3,1,1,3,1,1
31428377,2,2,1,1,SQUIRRELGRAY,2,1,1,1,1,1,0,0,0,0.5,0,0,0,0.5,155907976,BMAC965,123.17,1,T0,NA,"list(list(choice = ""SQUIRRELGRAY"", answers = list(HOWMANY = ""1"", SNOWDEPTH = ""010CM"", YOUNGPRESENT = ""NO"", PRECIPITATIONRAINSNOW = ""NO"", WHATBEHAVIORSDOYOUSEE = list(""FORAGINGEATING"")), filters = list()))",1,1,SQUIRRELGRAY,NA,1,010CM,NO,NA,NO,0,0,0,1,0,0,0,0,31428377,Deciduous ,BC,11_13_BC_000190.JPG,11_13_BC_000191.JPG,11_13_BC_000192.JPG,11,13,1,1,2,1,1,2,1,1
31428378,7,7,1,1,NOTHINGHERE,7,1,1,NA,NA,NA,NA,NA,NA,NA,NA,NA,NA,NA,153839693,barthelmess,123.17,1,T0,NA,"list(list(choice = ""NOTHINGHERE"", answers = list(), filters = list()))",1,1,NOTHINGHERE,NA,NA,NA,NA,NA,NA,NA,NA,NA,NA,NA,NA,NA,NA,31428378,Deciduous ,BC,11_13_BC_000193.JPG,11_13_BC_000194.JPG,11_13_BC_000195.JPG,11,13,1,1,7,1,1,7,1,1
31428379,4,4,1,1,NOTHINGHERE,4,1,1,NA,NA,NA,NA,NA,NA,NA,NA,NA,NA,NA,156000463,LJKinsey,123.17,1,T0,NA,"list(list(choice = ""NOTHINGHERE"", answers = list(), filters = list()))",1,1,NOTHINGHERE,NA,NA,NA,NA,NA,NA,NA,NA,NA,NA,NA,NA,NA,NA,31428379,Deciduous ,BC,11_13_BC_000196.JPG,11_13_BC_000197.JPG,11_13_BC_000198.JPG,11,13,1,1,4,1,1,4,1,1
31428380,7,7,1,1,SQUIRRELGRAY,7,1,1,1,1,1,0,0,0,0,0,0,0,1,155713768,anvon15,123.17,1,T0,NA,"list(list(choice = ""SQUIRRELGRAY"", answers = list(HOWMANY = ""1"", SNOWDEPTH = ""1020CM"", YOUNGPRESENT = ""NO"", PRECIPITATIONRAINSNOW = ""NO"", WHATBEHAVIORSDOYOUSEE = list(""WALKINGRUNNING"")), filters = list()))",1,1,SQUIRRELGRAY,NA,1,1020CM,NO,NA,NO,0,0,0,0,0,0,0,1,31428380,Deciduous ,BC,11_13_BC_000199.JPG,11_13_BC_000200.JPG,11_13_BC_000201.JPG,11,13,1,1,7,1,1,7,1,1
31428381,6,6,1,1,SQUIRRELGRAY,6,1,1,NA,NA,NA,0,0,0,0.333333333,0,0,0.5,0.333333333,156177158,keandy16,123.17,1,T0,NA,"list(list(choice = ""SQUIRRELGRAY"", answers = list(HOWMANY = ""1"", SNOWDEPTH = ""010CM"", YOUNGPRESENT = ""NO"", PRECIPITATIONRAINSNOW = ""NO"", WHATBEHAVIORSDOYOUSEE = list(""SITTINGSTANDINGLYING"")), filters = list()))",1,1,SQUIRRELGRAY,NA,1,010CM,NO,NA,NO,0,0,0,0,0,0,1,0,31428381,Deciduous ,BC,11_13_BC_000202.JPG,11_13_BC_000203.JPG,11_13_BC_000204.JPG,11,13,1,1,6,1,1,6,1,1
31428382,4,4,1,2,SOMETHINGHERE,3,0.75,0.75,NA,NA,NA,NA,NA,NA,NA,NA,NA,NA,NA,153840015,barthelmess,123.17,1,T0,NA,"list(list(choice = ""SOMETHINGHERE"", answers = list(), filters = list()))",1,1,SOMETHINGHERE,NA,NA,NA,NA,NA,NA,NA,NA,NA,NA,NA,NA,NA,NA,31428382,Deciduous ,BC,11_13_BC_000205.JPG,11_13_BC_000206.JPG,11_13_BC_000207.JPG,11,13,1,1,4,1,1,4,2,1
31428383,4,4,1,1,DEERWHITETAILED,4,1,1,1,1,1,0,0,0,1,0,0,0.5,0,155207688,barthelmess,123.17,1,T0,NA,"list(list(choice = ""DEERWHITETAILED"", answers = list(HOWMANY = ""1"", SNOWDEPTH = ""2030CM"", ANTLERSPRESENT = ""NO"", PRECIPITATIONRAINSNOW = ""NO"", WHATBEHAVIORSDOYOUSEE = list(""FORAGINGEATING"", ""SITTINGSTANDINGLYING"")), filters = list()))",1,1,DEERWHITETAILED,NA,1,2030CM,NA,NO,NO,0,0,0,1,0,0,1,0,31428383,Deciduous ,BC,11_13_BC_000208.JPG,11_13_BC_000209.JPG,11_13_BC_000210.JPG,11,13,1,1,4,1,1,4,1,1
31428384,3,3,1,1,DEERWHITETAILED,3,1,1,1,1,1,0,0,0,1,0,0,0.666666667,0,155215341,keandy16,123.17,1,T0,NA,"list(list(choice = ""DEERWHITETAILED"", answers = list(HOWMANY = ""1"", SNOWDEPTH = ""010CM"", YOUNGPRESENT = ""NO"", ANTLERSPRESENT = ""NO"", PRECIPITATIONRAINSNOW = ""NO"", WHATBEHAVIORSDOYOUSEE = list(""FORAGINGEATING"", ""SITTINGSTANDINGLYING"")), filters = list()))",1,1,DEERWHITETAILED,NA,1,010CM,NO,NO,NO,0,0,0,1,0,0,1,0,31428384,Deciduous ,BC,11_13_BC_000211.JPG,11_13_BC_000212.JPG,11_13_BC_000213.JPG,11,13,1,1,3,1,1,3,1,1
31428385,2,2,1,1,DEERWHITETAILED,2,1,1,1,1,1,0,0,0,1,0,0,0,0,156655255,keandy16,123.17,1,T0,NA,"list(list(choice = ""DEERWHITETAILED"", answers = list(HOWMANY = ""1"", SNOWDEPTH = ""1020CM"", YOUNGPRESENT = ""NO"", ANTLERSPRESENT = ""NO"", PRECIPITATIONRAINSNOW = ""YES"", WHATBEHAVIORSDOYOUSEE = list(""FORAGINGEATING"")), filters = list()))",1,1,DEERWHITETAILED,NA,1,1020CM,NO,NO,YES,0,0,0,1,0,0,0,0,31428385,Deciduous ,BC,11_13_BC_000214.JPG,11_13_BC_000215.JPG,11_13_BC_000216.JPG,11,13,1,1,2,1,1,2,1,1
31428386,4,4,1,1,DEERWHITETAILED,4,1,1,1,1,1,0,0,0,0.25,0,0,0.5,0.25,155208688,barthelmess,123.17,1,T0,NA,"list(list(choice = ""DEERWHITETAILED"", answers = list(HOWMANY = ""1"", SNOWDEPTH = ""2030CM"", YOUNGPRESENT = ""NO"", ANTLERSPRESENT = ""NO"", PRECIPITATIONRAINSNOW = ""YES"", WHATBEHAVIORSDOYOUSEE = list(""WALKINGRUNNING"")), filters = list()))",1,1,DEERWHITETAILED,NA,1,2030CM,NO,NO,YES,0,0,0,0,0,0,0,1,31428386,Deciduous ,BC,11_13_BC_000217.JPG,11_13_BC_000218.JPG,11_13_BC_000219.JPG,11,13,1,1,4,1,1,4,1,1
31428387,4,4,1,3,SOMETHINGHERE,2,0.5,0.5,NA,NA,NA,NA,NA,NA,NA,NA,NA,NA,NA,156170488,keandy16,123.17,1,T0,NA,"list(list(choice = ""NOTHINGHERE"", answers = list(), filters = list()))",1,1,NOTHINGHERE,NA,NA,NA,NA,NA,NA,NA,NA,NA,NA,NA,NA,NA,NA,31428387,Deciduous ,BC,11_13_BC_000220.JPG,11_13_BC_000221.JPG,11_13_BC_000222.JPG,11,13,1,1,4,1,1,4,3,1
31428388,4,4,1,1,SQUIRRELGRAY,4,1,1,1,1,1,0,0,0,0,0,0,0,1,154310603,keandy16,123.17,1,T0,NA,"list(list(choice = ""SQUIRRELGRAY"", answers = list(HOWMANY = ""1"", SNOWDEPTH = ""1020CM"", YOUNGPRESENT = ""NO"", PRECIPITATIONRAINSNOW = ""NO"", WHATBEHAVIORSDOYOUSEE = list(""WALKINGRUNNING"")), filters = list()))",1,1,SQUIRRELGRAY,NA,1,1020CM,NO,NA,NO,0,0,0,0,0,0,0,1,31428388,Deciduous ,BC,11_13_BC_000223.JPG,11_13_BC_000224.JPG,11_13_BC_000225.JPG,11,13,1,1,4,1,1,4,1,1
31428389,3,3,1,1,NOTHINGHERE,3,1,1,NA,NA,NA,NA,NA,NA,NA,NA,NA,NA,NA,155997044,LJKinsey,123.17,1,T0,NA,"list(list(choice = ""NOTHINGHERE"", answers = list(), filters = list()))",1,1,NOTHINGHERE,NA,NA,NA,NA,NA,NA,NA,NA,NA,NA,NA,NA,NA,NA,31428389,Deciduous ,BC,11_13_BC_000226.JPG,11_13_BC_000227.JPG,11_13_BC_000228.JPG,11,13,1,1,3,1,1,3,1,1
31428390,3,3,1,2,NOTHINGHERE,2,0.666666667,0.666666667,NA,NA,NA,NA,NA,NA,NA,NA,NA,NA,NA,156436409,brigidbarstow,123.17,1,T0,NA,"list(list(choice = ""NOTHINGHERE"", answers = list(), filters = list()))",1,1,NOTHINGHERE,NA,NA,NA,NA,NA,NA,NA,NA,NA,NA,NA,NA,NA,NA,31428390,Deciduous ,BC,11_13_BC_000229.JPG,11_13_BC_000230.JPG,11_13_BC_000231.JPG,11,13,1,1,3,1,1,3,2,1
31428391,5,5,1,2,NOTHINGHERE,3,0.6,0.6,NA,NA,NA,NA,NA,NA,NA,NA,NA,NA,NA,153729361,micheleroberge,123.17,1,T0,NA,"list(list(choice = ""NOTHINGHERE"", answers = list(), filters = list()))",1,1,NOTHINGHERE,NA,NA,NA,NA,NA,NA,NA,NA,NA,NA,NA,NA,NA,NA,31428391,Deciduous ,BC,11_13_BC_000232.JPG,11_13_BC_000233.JPG,11_13_BC_000234.JPG,11,13,1,1,5,1,1,5,2,1
31428392,2,2,1,1,SOMETHINGHERE,2,1,1,NA,NA,NA,NA,NA,NA,NA,NA,NA,NA,NA,156719393,seauch15,123.17,1,T0,NA,"list(list(choice = ""SOMETHINGHERE"", answers = list(), filters = list()))",1,1,SOMETHINGHERE,NA,NA,NA,NA,NA,NA,NA,NA,NA,NA,NA,NA,NA,NA,31428392,Deciduous ,BC,11_13_BC_000235.JPG,11_13_BC_000236.JPG,11_13_BC_000237.JPG,11,13,1,1,2,1,1,2,1,1
31428393,3,3,1,3,TURKEY,1,0.333333333,0.333333333,1,1,1,0,0,0,0,0,0,0,1,156706237,seauch15,123.17,1,T0,NA,"list(list(choice = ""HUMAN"", answers = list(HOWMANY = ""1"", SNOWDEPTH = ""010CM"", PRECIPITATIONRAINSNOW = ""NO"", WHATBEHAVIORSDOYOUSEE = list(""WALKINGRUNNING"")), filters = list()))",1,1,HUMAN,NA,1,010CM,NA,NA,NO,0,0,0,0,0,0,0,1,31428393,Deciduous ,BC,11_13_BC_000238.JPG,11_13_BC_000239.JPG,11_13_BC_000240.JPG,11,13,1,1,3,1,1,3,3,1
31428394,4,4,1,1,SQUIRRELGRAY,4,1,1,1,1,1,0,0,0,0.75,0,0,0,1,155206739,barthelmess,123.17,1,T0,NA,"list(list(choice = ""SQUIRRELGRAY"", answers = list(HOWMANY = ""1"", SNOWDEPTH = ""010CM"", YOUNGPRESENT = ""NO"", PRECIPITATIONRAINSNOW = ""NO"", WHATBEHAVIORSDOYOUSEE = list(""FORAGINGEATING"", ""WALKINGRUNNING"")), filters = list()))",1,1,SQUIRRELGRAY,NA,1,010CM,NO,NA,NO,0,0,0,1,0,0,0,1,31428394,Deciduous ,BC,11_13_BC_000241.JPG,11_13_BC_000242.JPG,11_13_BC_000243.JPG,11,13,1,1,4,1,1,4,1,1
31428395,3,3,1,1,NOTHINGHERE,3,1,1,NA,NA,NA,NA,NA,NA,NA,NA,NA,NA,NA,155205555,barthelmess,123.17,1,T0,NA,"list(list(choice = ""NOTHINGHERE"", answers = list(), filters = list()))",1,1,NOTHINGHERE,NA,NA,NA,NA,NA,NA,NA,NA,NA,NA,NA,NA,NA,NA,31428395,Deciduous ,BC,11_13_BC_000244.JPG,11_13_BC_000245.JPG,11_13_BC_000246.JPG,11,13,1,1,3,1,1,3,1,1
31428396,5,5,1,1,NOTHINGHERE,5,1,1,NA,NA,NA,NA,NA,NA,NA,NA,NA,NA,NA,153927348,micheleroberge,123.17,1,T0,NA,"list(list(choice = ""NOTHINGHERE"", answers = list(), filters = list()))",1,1,NOTHINGHERE,NA,NA,NA,NA,NA,NA,NA,NA,NA,NA,NA,NA,NA,NA,31428396,Deciduous ,BC,11_13_BC_000247.JPG,11_13_BC_000248.JPG,11_13_BC_000249.JPG,11,13,1,1,5,1,1,5,1,1
31428397,3,3,1,1,SQUIRRELGRAY,3,1,1,1,1,1,0,0,0,0,0,0,0.666666667,0.333333333,155907094,Donovan.Spaulding,123.17,1,T0,NA,"list(list(choice = ""SQUIRRELGRAY"", answers = list(HOWMANY = ""1"", SNOWDEPTH = ""010CM"", YOUNGPRESENT = ""NO"", PRECIPITATIONRAINSNOW = ""NO"", WHATBEHAVIORSDOYOUSEE = list(""SITTINGSTANDINGLYING"")), filters = list()))",1,1,SQUIRRELGRAY,NA,1,010CM,NO,NA,NO,0,0,0,0,0,0,1,0,31428397,Deciduous ,BC,11_13_BC_000250.JPG,11_13_BC_000251.JPG,11_13_BC_000252.JPG,11,13,1,1,3,1,1,3,1,1
31428398,8,8,1,1,SQUIRRELGRAY,8,1,1,1,1,1,0,0,0,0.142857143,0,0,0.571428571,0.428571429,155207468,barthelmess,123.17,1,T0,NA,"list(list(choice = ""SQUIRRELGRAY"", answers = list(HOWMANY = ""1"", SNOWDEPTH = ""010CM"", YOUNGPRESENT = ""NO"", PRECIPITATIONRAINSNOW = ""NO"", WHATBEHAVIORSDOYOUSEE = list(""FORAGINGEATING"", ""WALKINGRUNNING"")), filters = list()))",1,1,SQUIRRELGRAY,NA,1,010CM,NO,NA,NO,0,0,0,1,0,0,0,1,31428398,Deciduous ,BC,11_13_BC_000253.JPG,11_13_BC_000254.JPG,11_13_BC_000255.JPG,11,13,1,1,8,1,1,8,1,1
31428399,5,5,1,1,SQUIRRELGRAY,5,1,1,2,1,2,0,0,0,0.4,0.2,0,0.4,0.6,153663452,barthelmess,123.17,1,T0,NA,"list(list(choice = ""SQUIRRELGRAY"", answers = list(HOWMANY = ""2"", SNOWDEPTH = ""010CM"", YOUNGPRESENT = ""NO"", PRECIPITATIONRAINSNOW = ""NO"", WHATBEHAVIORSDOYOUSEE = list(""WALKINGRUNNING"", ""FORAGINGEATING"")), filters = list()))",1,1,SQUIRRELGRAY,NA,2,010CM,NO,NA,NO,0,0,0,1,0,0,0,1,31428399,Deciduous ,BC,11_13_BC_000256.JPG,11_13_BC_000257.JPG,11_13_BC_000258.JPG,11,13,1,1,5,1,1,5,1,1
31428400,4,4,1,1,SQUIRRELGRAY,4,1,1,1,1,1,0,0.25,0,0.5,0,0,0,0.5,156003265,LJKinsey,123.17,1,T0,NA,"list(list(choice = ""SQUIRRELGRAY"", answers = list(HOWMANY = ""1"", SNOWDEPTH = ""010CM"", YOUNGPRESENT = ""NO"", PRECIPITATIONRAINSNOW = ""NO"", WHATBEHAVIORSDOYOUSEE = list(""WALKINGRUNNING"")), filters = list()))",1,1,SQUIRRELGRAY,NA,1,010CM,NO,NA,NO,0,0,0,0,0,0,0,1,31428400,Deciduous ,BC,11_13_BC_000259.JPG,11_13_BC_000260.JPG,11_13_BC_000261.JPG,11,13,1,1,4,1,1,4,1,1
31428401,4,4,1,1,NOTHINGHERE,4,1,1,NA,NA,NA,NA,NA,NA,NA,NA,NA,NA,NA,156320702,anvon15,123.17,1,T0,NA,"list(list(choice = ""NOTHINGHERE"", answers = list(), filters = list()))",1,1,NOTHINGHERE,NA,NA,NA,NA,NA,NA,NA,NA,NA,NA,NA,NA,NA,NA,31428401,Deciduous ,BC,11_13_BC_000262.JPG,11_13_BC_000263.JPG,11_13_BC_000264.JPG,11,13,1,1,4,1,1,4,1,1
31428402,6,6,1,1,NOTHINGHERE,6,1,1,NA,NA,NA,NA,NA,NA,NA,NA,NA,NA,NA,155208100,barthelmess,123.17,1,T0,NA,"list(list(choice = ""NOTHINGHERE"", answers = list(), filters = list()))",1,1,NOTHINGHERE,NA,NA,NA,NA,NA,NA,NA,NA,NA,NA,NA,NA,NA,NA,31428402,Deciduous ,BC,11_13_BC_000265.JPG,11_13_BC_000266.JPG,11_13_BC_000267.JPG,11,13,1,1,6,1,1,6,1,1
31428403,5,5,1,1,NOTHINGHERE,5,1,1,NA,NA,NA,NA,NA,NA,NA,NA,NA,NA,NA,153673833,keandy16,123.17,1,T0,NA,"list(list(choice = ""NOTHINGHERE"", answers = list(), filters = list()))",1,1,NOTHINGHERE,NA,NA,NA,NA,NA,NA,NA,NA,NA,NA,NA,NA,NA,NA,31428403,Deciduous ,BC,11_13_BC_000268.JPG,11_13_BC_000269.JPG,11_13_BC_000270.JPG,11,13,1,1,5,1,1,5,1,1
31428404,1,1,1,1,NOTHINGHERE,1,1,1,NA,NA,NA,NA,NA,NA,NA,NA,NA,NA,NA,156707893,seauch15,123.17,1,T0,NA,"list(list(choice = ""NOTHINGHERE"", answers = list(), filters = list()))",1,1,NOTHINGHERE,NA,NA,NA,NA,NA,NA,NA,NA,NA,NA,NA,NA,NA,NA,31428404,Deciduous ,BC,11_13_BC_000271.JPG,11_13_BC_000272.JPG,11_13_BC_000273.JPG,11,13,1,1,1,1,1,1,1,1
31428405,2,2,1,1,NOTHINGHERE,2,1,1,NA,NA,NA,NA,NA,NA,NA,NA,NA,NA,NA,155712535,anvon15,123.17,1,T0,NA,"list(list(choice = ""NOTHINGHERE"", answers = list(), filters = list()))",1,1,NOTHINGHERE,NA,NA,NA,NA,NA,NA,NA,NA,NA,NA,NA,NA,NA,NA,31428405,Deciduous ,BC,11_13_BC_000274.JPG,11_13_BC_000275.JPG,11_13_BC_000276.JPG,11,13,1,1,2,1,1,2,1,1
31428406,5,5,1,1,NOTHINGHERE,5,1,1,NA,NA,NA,NA,NA,NA,NA,NA,NA,NA,NA,154690067,Hartk,123.17,1,T0,NA,"list(list(choice = ""NOTHINGHERE"", answers = list(), filters = list()))",1,1,NOTHINGHERE,NA,NA,NA,NA,NA,NA,NA,NA,NA,NA,NA,NA,NA,NA,31428406,Deciduous ,BC,11_13_BC_000277.JPG,11_13_BC_000278.JPG,11_13_BC_000279.JPG,11,13,1,1,5,1,1,5,1,1
31428407,3,3,1,1,NOTHINGHERE,3,1,1,NA,NA,NA,NA,NA,NA,NA,NA,NA,NA,NA,155206762,barthelmess,123.17,1,T0,NA,"list(list(choice = ""NOTHINGHERE"", answers = list(), filters = list()))",1,1,NOTHINGHERE,NA,NA,NA,NA,NA,NA,NA,NA,NA,NA,NA,NA,NA,NA,31428407,Deciduous ,BC,11_13_BC_000280.JPG,11_13_BC_000281.JPG,11_13_BC_000282.JPG,11,13,1,1,3,1,1,3,1,1
31428408,4,4,1,1,NOTHINGHERE,4,1,1,NA,NA,NA,NA,NA,NA,NA,NA,NA,NA,NA,155210079,barthelmess,123.17,1,T0,NA,"list(list(choice = ""NOTHINGHERE"", answers = list(), filters = list()))",1,1,NOTHINGHERE,NA,NA,NA,NA,NA,NA,NA,NA,NA,NA,NA,NA,NA,NA,31428408,Deciduous ,BC,11_13_BC_000283.JPG,11_13_BC_000284.JPG,11_13_BC_000285.JPG,11,13,1,1,4,1,1,4,1,1
31428409,2,2,1,1,SOMETHINGHERE,2,1,1,NA,NA,NA,NA,NA,NA,NA,NA,NA,NA,NA,156722835,seauch15,123.17,1,T0,NA,"list(list(choice = ""SOMETHINGHERE"", answers = list(), filters = list()))",1,1,SOMETHINGHERE,NA,NA,NA,NA,NA,NA,NA,NA,NA,NA,NA,NA,NA,NA,31428409,Deciduous ,DON,14_22_DON_000001.JPG,14_22_DON_000002.JPG,14_22_DON_000003.JPG,14,22,1,1,2,1,1,2,1,1
31428410,8,8,1,2,DEERWHITETAILED,4,0.5,0.5,1,1,1,0,0,0,0.666666667,0,0,0,0.666666667,155769693,keandy16,123.17,1,T0,NA,"list(list(choice = ""SOMETHINGHERE"", answers = list(), filters = list()))",1,1,SOMETHINGHERE,NA,NA,NA,NA,NA,NA,NA,NA,NA,NA,NA,NA,NA,NA,31428410,Deciduous ,DON,14_22_DON_000004.JPG,14_22_DON_000005.JPG,14_22_DON_000006.JPG,14,22,1,1,8,1,1,8,2,1
31428411,5,5,1,1,NOTHINGHERE,5,1,1,NA,NA,NA,NA,NA,NA,NA,NA,NA,NA,NA,153839540,barthelmess,123.17,1,T0,NA,"list(list(choice = ""NOTHINGHERE"", answers = list(), filters = list()))",1,1,NOTHINGHERE,NA,NA,NA,NA,NA,NA,NA,NA,NA,NA,NA,NA,NA,NA,31428411,Deciduous ,DON,14_22_DON_000007.JPG,14_22_DON_000008.JPG,14_22_DON_000009.JPG,14,22,1,1,5,1,1,5,1,1
31428412,6,6,1,1,NOTHINGHERE,6,1,1,NA,NA,NA,NA,NA,NA,NA,NA,NA,NA,NA,154693404,not-logged-in-d0b06505b62640b2f255,123.17,1,T0,NA,"list(list(choice = ""NOTHINGHERE"", answers = list(), filters = list()))",1,1,NOTHINGHERE,NA,NA,NA,NA,NA,NA,NA,NA,NA,NA,NA,NA,NA,NA,31428412,Deciduous ,DON,14_22_DON_000010.JPG,14_22_DON_000011.JPG,14_22_DON_000012.JPG,14,22,1,1,6,1,1,6,1,1
31428413,3,3,1,2,RACCOON,2,0.666666667,0.666666667,1,1,1,0,0,0,0,0,0,0,1,155882029,barthelmess,123.17,1,T0,NA,"list(list(choice = ""RACCOON"", answers = list(HOWMANY = ""1"", SNOWDEPTH = ""010CM"", YOUNGPRESENT = ""NO"", PRECIPITATIONRAINSNOW = ""NO"", WHATBEHAVIORSDOYOUSEE = list(""WALKINGRUNNING"")), filters = list()))",1,1,RACCOON,NA,1,010CM,NO,NA,NO,0,0,0,0,0,0,0,1,31428413,Deciduous ,DON,14_22_DON_000013.JPG,14_22_DON_000014.JPG,14_22_DON_000015.JPG,14,22,1,1,3,1,1,3,2,1
31428414,3,3,1,1,DEERWHITETAILED,3,1,1,1,1,1,0,0,0,0.666666667,0,0,0,1,155947289,anvon15,123.17,1,T0,NA,"list(list(choice = ""DEERWHITETAILED"", answers = list(HOWMANY = ""1"", SNOWDEPTH = ""010CM"", YOUNGPRESENT = ""NO"", ANTLERSPRESENT = ""NO"", PRECIPITATIONRAINSNOW = ""NO"", WHATBEHAVIORSDOYOUSEE = list(""WALKINGRUNNING"", ""FORAGINGEATING"")), filters = list()))",1,1,DEERWHITETAILED,NA,1,010CM,NO,NO,NO,0,0,0,1,0,0,0,1,31428414,Deciduous ,DON,14_22_DON_000016.JPG,14_22_DON_000017.JPG,14_22_DON_000018.JPG,14,22,1,1,3,1,1,3,1,1
31428415,5,5,1,1,DEERWHITETAILED,5,1,1,1,1,1,0,0,0,0.8,0,0,0,0.6,154694949,HMonnat,123.17,1,T0,NA,"list(list(choice = ""DEERWHITETAILED"", answers = list(HOWMANY = ""1"", SNOWDEPTH = ""010CM"", ANTLERSPRESENT = ""NO"", PRECIPITATIONRAINSNOW = ""NO"", WHATBEHAVIORSDOYOUSEE = list(""FORAGINGEATING"")), filters = list()))",1,1,DEERWHITETAILED,NA,1,010CM,NA,NO,NO,0,0,0,1,0,0,0,0,31428415,Deciduous ,DON,14_22_DON_000019.JPG,14_22_DON_000020.JPG,14_22_DON_000021.JPG,14,22,1,1,5,1,1,5,1,1
31428416,3,3,1,1,NOTHINGHERE,3,1,1,NA,NA,NA,NA,NA,NA,NA,NA,NA,NA,NA,155867245,BMAC965,123.17,1,T0,NA,"list(list(choice = ""NOTHINGHERE"", answers = list(), filters = list()))",1,1,NOTHINGHERE,NA,NA,NA,NA,NA,NA,NA,NA,NA,NA,NA,NA,NA,NA,31428416,Deciduous ,DON,14_22_DON_000022.JPG,14_22_DON_000023.JPG,14_22_DON_000024.JPG,14,22,1,1,3,1,1,3,1,1
31428417,6,6,1,1,DEERWHITETAILED,6,1,1,1,1,1,0,0,0,0,0,0,0.666666667,0.333333333,153924669,micheleroberge,123.17,1,T0,NA,"list(list(choice = ""DEERWHITETAILED"", answers = list(HOWMANY = ""1"", SNOWDEPTH = ""1020CM"", YOUNGPRESENT = ""NO"", ANTLERSPRESENT = ""NO"", PRECIPITATIONRAINSNOW = ""NO"", WHATBEHAVIORSDOYOUSEE = list(""SITTINGSTANDINGLYING"")), filters = list()))",1,1,DEERWHITETAILED,NA,1,1020CM,NO,NO,NO,0,0,0,0,0,0,1,0,31428417,Deciduous ,DON,14_22_DON_000025.JPG,14_22_DON_000026.JPG,14_22_DON_000027.JPG,14,22,1,1,6,1,1,6,1,1
31428418,6,6,1,1,DEERWHITETAILED,6,1,1,1,1,1,0,0,0,0,0,0,0,1,156225322,LarissaV,123.17,1,T0,NA,"list(list(choice = ""DEERWHITETAILED"", answers = list(HOWMANY = ""1"", SNOWDEPTH = ""010CM"", YOUNGPRESENT = ""NO"", ANTLERSPRESENT = ""NO"", PRECIPITATIONRAINSNOW = ""YES"", WHATBEHAVIORSDOYOUSEE = list(""WALKINGRUNNING"")), filters = list()))",1,1,DEERWHITETAILED,NA,1,010CM,NO,NO,YES,0,0,0,0,0,0,0,1,31428418,Deciduous ,DON,14_22_DON_000028.JPG,14_22_DON_000029.JPG,14_22_DON_000030.JPG,14,22,1,1,6,1,1,6,1,1
31428419,7,7,1,1,DEERWHITETAILED,7,1,1,NA,NA,NA,0,0,0,0.166666667,0,0,0,1,155212332,barthelmess,123.17,1,T0,NA,"list(list(choice = ""DEERWHITETAILED"", answers = list(HOWMANY = ""1"", SNOWDEPTH = ""010CM"", YOUNGPRESENT = ""NO"", ANTLERSPRESENT = ""NO"", PRECIPITATIONRAINSNOW = ""NO"", WHATBEHAVIORSDOYOUSEE = list(""WALKINGRUNNING"")), filters = list()))",1,1,DEERWHITETAILED,NA,1,010CM,NO,NO,NO,0,0,0,0,0,0,0,1,31428419,Deciduous ,DON,14_22_DON_000031.JPG,14_22_DON_000032.JPG,14_22_DON_000033.JPG,14,22,1,1,7,1,1,7,1,1
31428420,5,5,1,1,DEERWHITETAILED,5,1,1,1,1,1,0,0,0,0,0,0,0,1,155981314,not-logged-in-1a4880d4c7a073ad50bc,123.17,1,T0,NA,"list(list(choice = ""DEERWHITETAILED"", answers = list(HOWMANY = ""1"", SNOWDEPTH = ""010CM"", YOUNGPRESENT = ""NO"", ANTLERSPRESENT = ""NO"", PRECIPITATIONRAINSNOW = ""YES"", WHATBEHAVIORSDOYOUSEE = list(""WALKINGRUNNING"")), filters = list()))",1,1,DEERWHITETAILED,NA,1,010CM,NO,NO,YES,0,0,0,0,0,0,0,1,31428420,Deciduous ,DON,14_22_DON_000034.JPG,14_22_DON_000035.JPG,14_22_DON_000036.JPG,14,22,1,1,5,1,1,5,1,1
31428421,4,4,1,1,DEERWHITETAILED,4,1,1,1,1,1,0,0,0,0,0,0,0,1,155208828,barthelmess,123.17,1,T0,NA,"list(list(choice = ""DEERWHITETAILED"", answers = list(HOWMANY = ""1"", SNOWDEPTH = ""010CM"", YOUNGPRESENT = ""NO"", ANTLERSPRESENT = ""NO"", PRECIPITATIONRAINSNOW = ""NO"", WHATBEHAVIORSDOYOUSEE = list(""WALKINGRUNNING"")), filters = list()))",1,1,DEERWHITETAILED,NA,1,010CM,NO,NO,NO,0,0,0,0,0,0,0,1,31428421,Deciduous ,DON,14_22_DON_000037.JPG,14_22_DON_000038.JPG,14_22_DON_000039.JPG,14,22,1,1,4,1,1,4,1,1
31428422,4,4,1,1,DEERWHITETAILED,4,1,1,1,1,1,0,0,0,0,0,0,0,1,155868330,Donovan.Spaulding,123.17,1,T0,NA,"list(list(choice = ""DEERWHITETAILED"", answers = list(HOWMANY = ""1"", SNOWDEPTH = ""010CM"", YOUNGPRESENT = ""NO"", ANTLERSPRESENT = ""NO"", PRECIPITATIONRAINSNOW = ""NO"", WHATBEHAVIORSDOYOUSEE = list(""WALKINGRUNNING"")), filters = list()))",1,1,DEERWHITETAILED,NA,1,010CM,NO,NO,NO,0,0,0,0,0,0,0,1,31428422,Deciduous ,DON,14_22_DON_000040.JPG,14_22_DON_000041.JPG,14_22_DON_000042.JPG,14,22,1,1,4,1,1,4,1,1
31428423,3,3,1,1,NOTHINGHERE,3,1,1,NA,NA,NA,NA,NA,NA,NA,NA,NA,NA,NA,156219917,keandy16,123.17,1,T0,NA,"list(list(choice = ""NOTHINGHERE"", answers = list(), filters = list()))",1,1,NOTHINGHERE,NA,NA,NA,NA,NA,NA,NA,NA,NA,NA,NA,NA,NA,NA,31428423,Deciduous ,DON,14_22_DON_000043.JPG,14_22_DON_000044.JPG,14_22_DON_000045.JPG,14,22,1,1,3,1,1,3,1,1
31428424,4,4,1,1,DEERWHITETAILED,4,1,1,1,1,1,0,0,0,0,0,0,0,1,156000810,LJKinsey,123.17,1,T0,NA,"list(list(choice = ""DEERWHITETAILED"", answers = list(HOWMANY = ""1"", SNOWDEPTH = ""010CM"", YOUNGPRESENT = ""NO"", ANTLERSPRESENT = ""NO"", PRECIPITATIONRAINSNOW = ""NO"", WHATBEHAVIORSDOYOUSEE = list(""WALKINGRUNNING"")), filters = list()))",1,1,DEERWHITETAILED,NA,1,010CM,NO,NO,NO,0,0,0,0,0,0,0,1,31428424,Deciduous ,DON,14_22_DON_000046.JPG,14_22_DON_000047.JPG,14_22_DON_000048.JPG,14,22,1,1,4,1,1,4,1,1
31428425,2,2,1,1,DEERWHITETAILED,2,1,1,1,1,1,0,0,0,0,0,0,0,1,156306079,LJKinsey,123.17,1,T0,NA,"list(list(choice = ""DEERWHITETAILED"", answers = list(HOWMANY = ""1"", SNOWDEPTH = ""010CM"", YOUNGPRESENT = ""NO"", PRECIPITATIONRAINSNOW = ""NO"", WHATBEHAVIORSDOYOUSEE = list(""WALKINGRUNNING"")), filters = list()))",1,1,DEERWHITETAILED,NA,1,010CM,NO,NA,NO,0,0,0,0,0,0,0,1,31428425,Deciduous ,DON,14_22_DON_000049.JPG,14_22_DON_000050.JPG,14_22_DON_000051.JPG,14,22,1,1,2,1,1,2,1,1
31428426,2,2,1,1,DEERWHITETAILED,2,1,1,1,1,1,0,0,0,0,0,0,0,1,156431515,brigidbarstow,123.17,1,T0,NA,"list(list(choice = ""DEERWHITETAILED"", answers = list(HOWMANY = ""1"", SNOWDEPTH = ""010CM"", YOUNGPRESENT = ""NO"", ANTLERSPRESENT = ""NO"", PRECIPITATIONRAINSNOW = ""NO"", WHATBEHAVIORSDOYOUSEE = list(""WALKINGRUNNING"")), filters = list()))",1,1,DEERWHITETAILED,NA,1,010CM,NO,NO,NO,0,0,0,0,0,0,0,1,31428426,Deciduous ,DON,14_22_DON_000052.JPG,14_22_DON_000053.JPG,14_22_DON_000054.JPG,14,22,1,1,2,1,1,2,1,1
31428427,4,4,1,1,DEERWHITETAILED,4,1,1,1,1,1,0,0,0,0.5,0,0,0,0.5,155990858,LJKinsey,123.17,1,T0,NA,"list(list(choice = ""DEERWHITETAILED"", answers = list(HOWMANY = ""1"", SNOWDEPTH = ""1020CM"", YOUNGPRESENT = ""NO"", ANTLERSPRESENT = ""NO"", PRECIPITATIONRAINSNOW = ""NO"", WHATBEHAVIORSDOYOUSEE = list(""FORAGINGEATING"")), filters = list()))",1,1,DEERWHITETAILED,NA,1,1020CM,NO,NO,NO,0,0,0,1,0,0,0,0,31428427,Deciduous ,DON,14_22_DON_000055.JPG,14_22_DON_000056.JPG,14_22_DON_000057.JPG,14,22,1,1,4,1,1,4,1,1
31428428,4,4,1,1,DEERWHITETAILED,4,1,1,2,2,2,0,0,0,0,0,0,0,1,154312248,keandy16,123.17,1,T0,NA,"list(list(choice = ""DEERWHITETAILED"", answers = list(HOWMANY = ""2"", SNOWDEPTH = ""1020CM"", YOUNGPRESENT = ""YES"", ANTLERSPRESENT = ""NO"", PRECIPITATIONRAINSNOW = ""NO"", WHATBEHAVIORSDOYOUSEE = list(""WALKINGRUNNING"")), filters = list()))",1,1,DEERWHITETAILED,NA,2,1020CM,YES,NO,NO,0,0,0,0,0,0,0,1,31428428,Deciduous ,DON,14_22_DON_000058.JPG,14_22_DON_000059.JPG,14_22_DON_000060.JPG,14,22,1,1,4,1,1,4,1,1
31428429,6,6,1,1,DEERWHITETAILED,6,1,1,4,2,4,0,0,0,0,0,0,0,1,155205676,keandy16,123.17,1,T0,NA,"list(list(choice = ""DEERWHITETAILED"", answers = list(HOWMANY = ""35"", SNOWDEPTH = ""2030CM"", YOUNGPRESENT = ""YES"", ANTLERSPRESENT = ""NO"", PRECIPITATIONRAINSNOW = ""NO"", WHATBEHAVIORSDOYOUSEE = list(""WALKINGRUNNING"")), filters = list()))",1,1,DEERWHITETAILED,NA,35,2030CM,YES,NO,NO,0,0,0,0,0,0,0,1,31428429,Deciduous ,DON,14_22_DON_000061.JPG,14_22_DON_000062.JPG,14_22_DON_000063.JPG,14,22,1,1,6,1,1,6,1,1
31428430,4,4,1,2,SOMETHINGHERE,3,0.75,0.75,NA,NA,NA,NA,NA,NA,NA,NA,NA,NA,NA,156208111,Donovan.Spaulding,123.17,1,T0,NA,"list(list(choice = ""FOXRED"", answers = list(HOWMANY = ""1"", SNOWDEPTH = ""010CM"", YOUNGPRESENT = ""NO"", PRECIPITATIONRAINSNOW = ""NO"", WHATBEHAVIORSDOYOUSEE = list(""WALKINGRUNNING"")), filters = list()))",1,1,FOXRED,NA,1,010CM,NO,NA,NO,0,0,0,0,0,0,0,1,31428430,Deciduous ,DON,14_22_DON_000064.JPG,14_22_DON_000065.JPG,14_22_DON_000066.JPG,14,22,1,1,4,1,1,4,2,1
31428431,5,5,1,1,DEERWHITETAILED,5,1,1,1,1,1,0,0,0,0,0,0,0,1,154691311,HMonnat,123.17,1,T0,NA,"list(list(choice = ""DEERWHITETAILED"", answers = list(HOWMANY = ""1"", SNOWDEPTH = ""010CM"", YOUNGPRESENT = ""NO"", ANTLERSPRESENT = ""NO"", PRECIPITATIONRAINSNOW = ""NO"", WHATBEHAVIORSDOYOUSEE = list(""WALKINGRUNNING"")), filters = list()))",1,1,DEERWHITETAILED,NA,1,010CM,NO,NO,NO,0,0,0,0,0,0,0,1,31428431,Deciduous ,DON,14_22_DON_000067.JPG,14_22_DON_000068.JPG,14_22_DON_000069.JPG,14,22,1,1,5,1,1,5,1,1
31428432,3,3,1,1,RACCOON,3,1,1,1,1,1,0,0,0,0,0,0,0,1,154691659,HMonnat,123.17,1,T0,NA,"list(list(choice = ""RACCOON"", answers = list(HOWMANY = ""1"", SNOWDEPTH = ""010CM"", YOUNGPRESENT = ""NO"", PRECIPITATIONRAINSNOW = ""NO"", WHATBEHAVIORSDOYOUSEE = list(""WALKINGRUNNING"")), filters = list()))",1,1,RACCOON,NA,1,010CM,NO,NA,NO,0,0,0,0,0,0,0,1,31428432,Deciduous ,DON,14_22_DON_000070.JPG,14_22_DON_000071.JPG,14_22_DON_000072.JPG,14,22,1,1,3,1,1,3,1,1
31428433,4,4,1,3,NOTHINGHERE,2,0.5,0.5,NA,NA,NA,NA,NA,NA,NA,NA,NA,NA,NA,154694130,abuckley2681,123.17,1,T0,NA,"list(list(choice = ""DEERWHITETAILED"", answers = list(HOWMANY = ""1"", SNOWDEPTH = ""010CM"", YOUNGPRESENT = ""NO"", PRECIPITATIONRAINSNOW = ""YES"", WHATBEHAVIORSDOYOUSEE = list(""WALKINGRUNNING"")), filters = list()))",1,1,DEERWHITETAILED,NA,1,010CM,NO,NA,YES,0,0,0,0,0,0,0,1,31428433,Deciduous ,DON,14_22_DON_000073.JPG,14_22_DON_000074.JPG,14_22_DON_000075.JPG,14,22,1,1,4,1,1,4,3,1
31428434,6,6,1,1,NOTHINGHERE,6,1,1,NA,NA,NA,NA,NA,NA,NA,NA,NA,NA,NA,155771104,keandy16,123.17,1,T0,NA,"list(list(choice = ""NOTHINGHERE"", answers = list(), filters = list()))",1,1,NOTHINGHERE,NA,NA,NA,NA,NA,NA,NA,NA,NA,NA,NA,NA,NA,NA,31428434,Deciduous ,DON,14_22_DON_000076.JPG,14_22_DON_000077.JPG,14_22_DON_000078.JPG,14,22,1,1,6,1,1,6,1,1
31428435,2,2,1,1,NOTHINGHERE,2,1,1,NA,NA,NA,NA,NA,NA,NA,NA,NA,NA,NA,155771024,keandy16,123.17,1,T0,NA,"list(list(choice = ""NOTHINGHERE"", answers = list(), filters = list()))",1,1,NOTHINGHERE,NA,NA,NA,NA,NA,NA,NA,NA,NA,NA,NA,NA,NA,NA,31428435,Deciduous ,DON,14_22_DON_000079.JPG,14_22_DON_000080.JPG,14_22_DON_000081.JPG,14,22,1,1,2,1,1,2,1,1
31428436,3,3,1,1,NOTHINGHERE,3,1,1,NA,NA,NA,NA,NA,NA,NA,NA,NA,NA,NA,155947177,anvon15,123.17,1,T0,NA,"list(list(choice = ""NOTHINGHERE"", answers = list(), filters = list()))",1,1,NOTHINGHERE,NA,NA,NA,NA,NA,NA,NA,NA,NA,NA,NA,NA,NA,NA,31428436,Deciduous ,DON,14_22_DON_000082.JPG,14_22_DON_000083.JPG,14_22_DON_000084.JPG,14,22,1,1,3,1,1,3,1,1
31428437,5,5,1,1,COYOTE,5,1,1,1,1,1,0,0,0,0,0,0,0.2,0.8,154693098,not-logged-in-a171f677a40edce0c0ab,123.17,1,T0,NA,"list(list(choice = ""COYOTE"", answers = list(HOWMANY = ""1"", SNOWDEPTH = ""1020CM"", YOUNGPRESENT = ""NO"", PRECIPITATIONRAINSNOW = ""NO"", WHATBEHAVIORSDOYOUSEE = list(""WALKINGRUNNING"")), filters = list()))",1,1,COYOTE,NA,1,1020CM,NO,NA,NO,0,0,0,0,0,0,0,1,31428437,Deciduous ,DON,14_22_DON_000085.JPG,14_22_DON_000086.JPG,14_22_DON_000087.JPG,14,22,1,1,5,1,1,5,1,1
31428438,4,4,1,1,DEERWHITETAILED,4,1,1,1,1,1,0,0,0,0,0,0,0,1,154311914,keandy16,123.17,1,T0,NA,"list(list(choice = ""DEERWHITETAILED"", answers = list(HOWMANY = ""1"", SNOWDEPTH = ""3040CM"", ANTLERSPRESENT = ""NO"", PRECIPITATIONRAINSNOW = ""NO"", WHATBEHAVIORSDOYOUSEE = list(""WALKINGRUNNING"")), filters = list()))",1,1,DEERWHITETAILED,NA,1,3040CM,NA,NO,NO,0,0,0,0,0,0,0,1,31428438,Deciduous ,DON,14_22_DON_000088.JPG,14_22_DON_000089.JPG,14_22_DON_000090.JPG,14,22,1,1,4,1,1,4,1,1
31428439,2,2,1,1,NOTHINGHERE,2,1,1,NA,NA,NA,NA,NA,NA,NA,NA,NA,NA,NA,156537623,not-logged-in-cb31cb7d0240d9126e0e,123.17,1,T0,NA,"list(list(choice = ""NOTHINGHERE"", answers = list(), filters = list()))",1,1,NOTHINGHERE,NA,NA,NA,NA,NA,NA,NA,NA,NA,NA,NA,NA,NA,NA,31428439,Deciduous ,DON,14_22_DON_000091.JPG,14_22_DON_000092.JPG,14_22_DON_000093.JPG,14,22,1,1,2,1,1,2,1,1
31428440,4,4,1,1,DEERWHITETAILED,4,1,1,1,1,1,0,0,0,0,0,0,0,1,154310842,keandy16,123.17,1,T0,NA,"list(list(choice = ""DEERWHITETAILED"", answers = list(HOWMANY = ""1"", SNOWDEPTH = ""2030CM"", YOUNGPRESENT = ""NO"", ANTLERSPRESENT = ""NO"", PRECIPITATIONRAINSNOW = ""NO"", WHATBEHAVIORSDOYOUSEE = list(""WALKINGRUNNING"")), filters = list()))",1,1,DEERWHITETAILED,NA,1,2030CM,NO,NO,NO,0,0,0,0,0,0,0,1,31428440,Deciduous ,DON,14_22_DON_000094.JPG,14_22_DON_000095.JPG,14_22_DON_000096.JPG,14,22,1,1,4,1,1,4,1,1
31428441,7,7,1,1,DEERWHITETAILED,7,1,1,1,1,1,0,0,0,0,0,0,0,1,153729255,micheleroberge,123.17,1,T0,NA,"list(list(choice = ""DEERWHITETAILED"", answers = list(HOWMANY = ""1"", SNOWDEPTH = ""1020CM"", YOUNGPRESENT = ""NO"", ANTLERSPRESENT = ""NO"", PRECIPITATIONRAINSNOW = ""NO"", WHATBEHAVIORSDOYOUSEE = list(""WALKINGRUNNING"")), filters = list()))",1,1,DEERWHITETAILED,NA,1,1020CM,NO,NO,NO,0,0,0,0,0,0,0,1,31428441,Deciduous ,DON,14_22_DON_000097.JPG,14_22_DON_000098.JPG,14_22_DON_000099.JPG,14,22,1,1,7,1,1,7,1,1
31428442,7,7,1,5,FOXRED,2,0.285714286,0.285714286,1,1,1,0,0,0,0,0,0,0,1,154694443,not-logged-in-42881cd7c1c2c2f4d1fc,123.17,1,T0,NA,"list(list(choice = ""FOXRED"", answers = list(HOWMANY = ""1"", SNOWDEPTH = ""3040CM"", YOUNGPRESENT = ""NO"", PRECIPITATIONRAINSNOW = ""NO"", WHATBEHAVIORSDOYOUSEE = list(""WALKINGRUNNING"")), filters = list()))",1,1,FOXRED,NA,1,3040CM,NO,NA,NO,0,0,0,0,0,0,0,1,31428442,Deciduous ,DON,14_22_DON_000100.JPG,14_22_DON_000101.JPG,14_22_DON_000102.JPG,14,22,1,1,7,1,1,7,5,1
31428443,7,7,1,2,NOTHINGHERE,6,0.857142857,0.857142857,NA,NA,NA,NA,NA,NA,NA,NA,NA,NA,NA,153840930,NatureUpNorth,123.17,1,T0,NA,"list(list(choice = ""NOTHINGHERE"", answers = list(), filters = list()))",1,1,NOTHINGHERE,NA,NA,NA,NA,NA,NA,NA,NA,NA,NA,NA,NA,NA,NA,31428443,Deciduous ,DON,14_22_DON_000103.JPG,14_22_DON_000104.JPG,14_22_DON_000105.JPG,14,22,1,1,7,1,1,7,2,1
31428444,1,1,1,1,DEERWHITETAILED,1,1,1,1,1,1,0,0,0,0,0,0,0,1,156308243,LJKinsey,123.17,1,T0,NA,"list(list(choice = ""DEERWHITETAILED"", answers = list(HOWMANY = ""1"", SNOWDEPTH = ""3040CM"", YOUNGPRESENT = ""NO"", ANTLERSPRESENT = ""NO"", PRECIPITATIONRAINSNOW = ""NO"", WHATBEHAVIORSDOYOUSEE = list(""WALKINGRUNNING"")), filters = list()))",1,1,DEERWHITETAILED,NA,1,3040CM,NO,NO,NO,0,0,0,0,0,0,0,1,31428444,Deciduous ,DON,14_22_DON_000106.JPG,14_22_DON_000107.JPG,14_22_DON_000108.JPG,14,22,1,1,1,1,1,1,1,1
31428445,3,3,1,2,GROUSERUFFED,2,0.666666667,0.666666667,1,1,1,0,0,0,0,0,0,0,1,154693193,not-logged-in-d0b06505b62640b2f255,123.17,1,T0,NA,"list(list(choice = ""GROUSERUFFED"", answers = list(HOWMANY = ""1"", YOUNGPRESENT = ""NO"", PRECIPITATIONRAINSNOW = ""NO"", WHATBEHAVIORSDOYOUSEE = list(""WALKINGRUNNING"")), filters = list(TYPE = ""BIRD"")))",1,1,GROUSERUFFED,NA,1,NA,NO,NA,NO,0,0,0,0,0,0,0,1,31428445,Deciduous ,DON,14_22_DON_000109.JPG,14_22_DON_000110.JPG,14_22_DON_000111.JPG,14,22,1,1,3,1,1,3,2,1
31428446,4,4,1,1,FOXRED,4,1,1,1,1,1,0,0,0,0,0,0,0,1,155907796,BMAC965,123.17,1,T0,NA,"list(list(choice = ""FOXRED"", answers = list(HOWMANY = ""1"", SNOWDEPTH = ""1020CM"", YOUNGPRESENT = ""NO"", PRECIPITATIONRAINSNOW = ""NO"", WHATBEHAVIORSDOYOUSEE = list(""WALKINGRUNNING"")), filters = list()))",1,1,FOXRED,NA,1,1020CM,NO,NA,NO,0,0,0,0,0,0,0,1,31428446,Deciduous ,DON,14_22_DON_000112.JPG,14_22_DON_000113.JPG,14_22_DON_000114.JPG,14,22,1,1,4,1,1,4,1,1
31428447,3,3,1,1,NOTHINGHERE,3,1,1,NA,NA,NA,NA,NA,NA,NA,NA,NA,NA,NA,156270881,LJKinsey,123.17,1,T0,NA,"list(list(choice = ""NOTHINGHERE"", answers = list(), filters = list()))",1,1,NOTHINGHERE,NA,NA,NA,NA,NA,NA,NA,NA,NA,NA,NA,NA,NA,NA,31428447,Deciduous ,DON,14_22_DON_000115.JPG,14_22_DON_000116.JPG,14_22_DON_000117.JPG,14,22,1,1,3,1,1,3,1,1
31428448,6,6,1,3,DEERWHITETAILED,3,0.5,0.5,1,1,1,0,0,0,0,0,0,0,1,154690490,Hartk,123.17,1,T0,NA,"list(list(choice = ""SOMETHINGHERE"", answers = list(), filters = list()))",1,1,SOMETHINGHERE,NA,NA,NA,NA,NA,NA,NA,NA,NA,NA,NA,NA,NA,NA,31428448,Deciduous ,DON,14_22_DON_000118.JPG,14_22_DON_000119.JPG,14_22_DON_000120.JPG,14,22,1,1,6,1,1,6,3,1
31428449,5,5,1,1,HUMAN,5,1,1,NA,NA,NA,0,0,0,0,0,0,0,1,154692244,abuckley2681,123.17,1,T0,NA,"list(list(choice = ""HUMAN"", answers = list(HOWMANY = ""1"", SNOWDEPTH = ""1020CM"", PRECIPITATIONRAINSNOW = ""NO"", WHATBEHAVIORSDOYOUSEE = list(""WALKINGRUNNING"")), filters = list()))",1,1,HUMAN,NA,1,1020CM,NA,NA,NO,0,0,0,0,0,0,0,1,31428449,Deciduous ,DON,14_22_DON_000121.JPG,14_22_DON_000122.JPG,14_22_DON_000123.JPG,14,22,1,1,5,1,1,5,1,1
31428450,3,3,1,1,DEERWHITETAILED,3,1,1,NA,NA,NA,0,0,0,0,0,0,0,1,155212856,barthelmess,123.17,1,T0,NA,"list(list(choice = ""DEERWHITETAILED"", answers = list(HOWMANY = ""1"", SNOWDEPTH = ""1020CM"", YOUNGPRESENT = ""NO"", ANTLERSPRESENT = ""NO"", PRECIPITATIONRAINSNOW = ""NO"", WHATBEHAVIORSDOYOUSEE = list(""WALKINGRUNNING"")), filters = list()))",1,1,DEERWHITETAILED,NA,1,1020CM,NO,NO,NO,0,0,0,0,0,0,0,1,31428450,Pine ,DEG,15_14_DEG_000002.JPG,15_14_DEG_000003.JPG,15_14_DEG_000001.JPG,15,14,1,1,3,1,1,3,1,1
31428451,3,3,1,1,DEERWHITETAILED,3,1,1,1,1,1,0,0,0,0,0,0,0,1,155976800,LJKinsey,123.17,1,T0,NA,"list(list(choice = ""DEERWHITETAILED"", answers = list(HOWMANY = ""1"", SNOWDEPTH = ""1020CM"", YOUNGPRESENT = ""NO"", ANTLERSPRESENT = ""NO"", PRECIPITATIONRAINSNOW = ""NO"", WHATBEHAVIORSDOYOUSEE = list(""WALKINGRUNNING"")), filters = list()))",1,1,DEERWHITETAILED,NA,1,1020CM,NO,NO,NO,0,0,0,0,0,0,0,1,31428451,Pine ,DEG,15_14_DEG_000004.JPG,15_14_DEG_000005.JPG,15_14_DEG_000006.JPG,15,14,1,1,3,1,1,3,1,1
31428452,2,2,1,1,DEERWHITETAILED,2,1,1,1,1,1,0,0,0,0,0,0,1,0,155943313,anvon15,123.17,1,T0,NA,"list(list(choice = ""DEERWHITETAILED"", answers = list(HOWMANY = ""1"", SNOWDEPTH = ""1020CM"", YOUNGPRESENT = ""NO"", ANTLERSPRESENT = ""YES"", PRECIPITATIONRAINSNOW = ""NO"", WHATBEHAVIORSDOYOUSEE = list(""SITTINGSTANDINGLYING"")), filters = list()))",1,1,DEERWHITETAILED,NA,1,1020CM,NO,YES,NO,0,0,0,0,0,0,1,0,31428452,Pine ,DEG,15_14_DEG_000007.JPG,15_14_DEG_000008.JPG,15_14_DEG_000009.JPG,15,14,1,1,2,1,1,2,1,1
31428454,3,3,1,1,HUMAN,3,1,1,NA,NA,NA,0,0,0,0,0,0.666666667,0,0.666666667,155215529,keandy16,123.17,1,T0,NA,"list(list(choice = ""HUMAN"", answers = list(HOWMANY = ""1"", SNOWDEPTH = ""1020CM"", PRECIPITATIONRAINSNOW = ""NO"", WHATBEHAVIORSDOYOUSEE = list(""WALKINGRUNNING"")), filters = list()))",1,1,HUMAN,NA,1,1020CM,NA,NA,NO,0,0,0,0,0,0,0,1,31428454,Pine ,DEG,15_14_DEG_000013.JPG,15_14_DEG_000014.JPG,15_14_DEG_000015.JPG,15,14,1,1,3,1,1,3,1,1
31428455,5,5,1,1,DEERWHITETAILED,5,1,1,1,1,1,0,0,0,0,0,0,0,1,156033366,keandy16,123.17,1,T0,NA,"list(list(choice = ""DEERWHITETAILED"", answers = list(HOWMANY = ""1"", SNOWDEPTH = ""1020CM"", YOUNGPRESENT = ""NO"", PRECIPITATIONRAINSNOW = ""NO"", WHATBEHAVIORSDOYOUSEE = list(""WALKINGRUNNING"")), filters = list()))",1,1,DEERWHITETAILED,NA,1,1020CM,NO,NA,NO,0,0,0,0,0,0,0,1,31428455,Pine ,DEG,15_14_DEG_000016.JPG,15_14_DEG_000017.JPG,15_14_DEG_000018.JPG,15,14,1,1,5,1,1,5,1,1
31428456,6,6,1,1,HUMAN,6,1,1,NA,NA,NA,0,0,0,0,0,0,0,1,155208164,barthelmess,123.17,1,T0,NA,"list(list(choice = ""HUMAN"", answers = list(HOWMANY = ""1"", SNOWDEPTH = ""2030CM"", PRECIPITATIONRAINSNOW = ""NO"", WHATBEHAVIORSDOYOUSEE = list(""WALKINGRUNNING"")), filters = list()))",1,1,HUMAN,NA,1,2030CM,NA,NA,NO,0,0,0,0,0,0,0,1,31428456,Pine ,DEG,15_14_DEG_000019.JPG,15_14_DEG_000020.JPG,15_14_DEG_000021.JPG,15,14,1,1,6,1,1,6,1,1
31428457,2,2,1,1,DEERWHITETAILED,2,1,1,1,1,1,0,0,0,0,0,0,0,1,156505404,micheleroberge,123.17,1,T0,NA,"list(list(choice = ""DEERWHITETAILED"", answers = list(HOWMANY = ""1"", SNOWDEPTH = ""1020CM"", YOUNGPRESENT = ""NO"", ANTLERSPRESENT = ""NO"", PRECIPITATIONRAINSNOW = ""NO"", WHATBEHAVIORSDOYOUSEE = list(""WALKINGRUNNING"")), filters = list()))",1,1,DEERWHITETAILED,NA,1,1020CM,NO,NO,NO,0,0,0,0,0,0,0,1,31428457,Pine ,DEG,15_14_DEG_000022.JPG,15_14_DEG_000023.JPG,15_14_DEG_000024.JPG,15,14,1,1,2,1,1,2,1,1
31428458,1,1,1,1,DEERWHITETAILED,1,1,1,1,1,1,0,0,0,0,0,0,0,1,156860428,emmaoldow,123.17,1,T0,NA,"list(list(choice = ""DEERWHITETAILED"", answers = list(HOWMANY = ""1"", SNOWDEPTH = ""1020CM"", YOUNGPRESENT = ""YES"", ANTLERSPRESENT = ""NO"", PRECIPITATIONRAINSNOW = ""NO"", WHATBEHAVIORSDOYOUSEE = list(""WALKINGRUNNING"")), filters = list()))",1,1,DEERWHITETAILED,NA,1,1020CM,YES,NO,NO,0,0,0,0,0,0,0,1,31428458,Pine ,DEG,15_14_DEG_000025.JPG,15_14_DEG_000026.JPG,15_14_DEG_000027.JPG,15,14,1,1,1,1,1,1,1,1
31428459,6,6,1,1,NOTHINGHERE,6,1,1,NA,NA,NA,NA,NA,NA,NA,NA,NA,NA,NA,154691894,not-logged-in-a171f677a40edce0c0ab,123.17,1,T0,NA,"list(list(choice = ""NOTHINGHERE"", answers = list(), filters = list()))",1,1,NOTHINGHERE,NA,NA,NA,NA,NA,NA,NA,NA,NA,NA,NA,NA,NA,NA,31428459,Pine ,DEG,15_14_DEG_000028.JPG,15_14_DEG_000029.JPG,15_14_DEG_000030.JPG,15,14,1,1,6,1,1,6,1,1
31428460,6,6,1,3,COYOTE,4,0.666666667,0.666666667,1,1,1,0,0,0,0,0,0,0,1,154695401,not-logged-in-42881cd7c1c2c2f4d1fc,123.17,1,T0,NA,"list(list(choice = ""COYOTE"", answers = list(HOWMANY = ""1"", SNOWDEPTH = ""010CM"", YOUNGPRESENT = ""NO"", PRECIPITATIONRAINSNOW = ""NO"", WHATBEHAVIORSDOYOUSEE = list(""WALKINGRUNNING"")), filters = list()))",1,1,COYOTE,NA,1,010CM,NO,NA,NO,0,0,0,0,0,0,0,1,31428460,Pine ,DEG,15_14_DEG_000031.JPG,15_14_DEG_000032.JPG,15_14_DEG_000033.JPG,15,14,1,1,6,1,1,6,3,1
31428461,4,4,1,2,DEERWHITETAILED,3,0.75,0.75,1,1,1,0,0,0,0,0,0,0,1,153839932,barthelmess,123.17,1,T0,NA,"list(list(choice = ""DEERWHITETAILED"", answers = list(HOWMANY = ""1"", SNOWDEPTH = ""010CM"", YOUNGPRESENT = ""NO"", PRECIPITATIONRAINSNOW = ""NO"", WHATBEHAVIORSDOYOUSEE = list(""WALKINGRUNNING"")), filters = list()))",1,1,DEERWHITETAILED,NA,1,010CM,NO,NA,NO,0,0,0,0,0,0,0,1,31428461,Pine ,DEG,15_14_DEG_000034.JPG,15_14_DEG_000035.JPG,15_14_DEG_000036.JPG,15,14,1,1,4,1,1,4,2,1
31428462,5,5,1,1,DEERWHITETAILED,5,1,1,1,1,1,0,0,0,0,0,0,0,1,153676289,keandy16,123.17,1,T0,NA,"list(list(choice = ""DEERWHITETAILED"", answers = list(HOWMANY = ""1"", SNOWDEPTH = ""010CM"", YOUNGPRESENT = ""NO"", ANTLERSPRESENT = ""NO"", PRECIPITATIONRAINSNOW = ""NO"", WHATBEHAVIORSDOYOUSEE = list(""WALKINGRUNNING"")), filters = list()))",1,1,DEERWHITETAILED,NA,1,010CM,NO,NO,NO,0,0,0,0,0,0,0,1,31428462,Pine ,DEG,15_14_DEG_000037.JPG,15_14_DEG_000038.JPG,15_14_DEG_000039.JPG,15,14,1,1,5,1,1,5,1,1
31428463,7,7,1,1,DEERWHITETAILED,7,1,1,1,1,1,0,0,0,0,0.285714286,0,0.285714286,1,154694784,HMonnat,123.17,1,T0,NA,"list(list(choice = ""DEERWHITETAILED"", answers = list(HOWMANY = ""1"", SNOWDEPTH = ""010CM"", YOUNGPRESENT = ""NO"", ANTLERSPRESENT = ""NO"", PRECIPITATIONRAINSNOW = ""NO"", WHATBEHAVIORSDOYOUSEE = list(""WALKINGRUNNING"")), filters = list()))",1,1,DEERWHITETAILED,NA,1,010CM,NO,NO,NO,0,0,0,0,0,0,0,1,31428463,Pine ,DEG,15_14_DEG_000040.JPG,15_14_DEG_000041.JPG,15_14_DEG_000042.JPG,15,14,1,1,7,1,1,7,1,1
31428464,3,3,1,1,DEERWHITETAILED,3,1,1,1,1,1,0,0,0,0,0,0,1,0,156434901,brigidbarstow,123.17,1,T0,NA,"list(list(choice = ""DEERWHITETAILED"", answers = list(HOWMANY = ""1"", SNOWDEPTH = ""010CM"", YOUNGPRESENT = ""NO"", ANTLERSPRESENT = ""NO"", PRECIPITATIONRAINSNOW = ""NO"", WHATBEHAVIORSDOYOUSEE = list(""SITTINGSTANDINGLYING"")), filters = list()))",1,1,DEERWHITETAILED,NA,1,010CM,NO,NO,NO,0,0,0,0,0,0,1,0,31428464,Pine ,DEG,15_14_DEG_000043.JPG,15_14_DEG_000044.JPG,NA,15,14,1,1,3,1,1,3,1,1
31428465,4,4,1,3,DEERWHITETAILED,2,0.5,0.5,1,1,1,0,0,0,0,0,0,0,1,155942414,anvon15,123.17,1,T0,NA,"list(list(choice = ""NOTHINGHERE"", answers = list(), filters = list()))",1,1,NOTHINGHERE,NA,NA,NA,NA,NA,NA,NA,NA,NA,NA,NA,NA,NA,NA,31428465,Pine ,DEG,15_14_DEG_000046.JPG,15_14_DEG_000047.JPG,15_14_DEG_000048.JPG,15,14,1,1,4,1,1,4,3,1
31428466,2,2,1,1,DEERWHITETAILED,2,1,1,1,1,1,0,0,0,1,0,0,0,0.5,154695096,Hartk,123.17,1,T0,NA,"list(list(choice = ""DEERWHITETAILED"", answers = list(HOWMANY = ""1"", SNOWDEPTH = ""010CM"", YOUNGPRESENT = ""NO"", ANTLERSPRESENT = ""NO"", PRECIPITATIONRAINSNOW = ""NO"", WHATBEHAVIORSDOYOUSEE = list(""WALKINGRUNNING"", ""FORAGINGEATING"")), filters = list()))",1,1,DEERWHITETAILED,NA,1,010CM,NO,NO,NO,0,0,0,1,0,0,0,1,31428466,Pine ,DEG,15_14_DEG_000049.JPG,15_14_DEG_000050.JPG,15_14_DEG_000051.JPG,15,14,1,1,2,1,1,2,1,1
31428467,3,3,1,2,SOMETHINGHERE,2,0.666666667,0.666666667,NA,NA,NA,NA,NA,NA,NA,NA,NA,NA,NA,155973905,LJKinsey,123.17,1,T0,NA,"list(list(choice = ""COYOTE"", answers = list(HOWMANY = ""1"", SNOWDEPTH = ""010CM"", YOUNGPRESENT = ""NO"", PRECIPITATIONRAINSNOW = ""NO"", WHATBEHAVIORSDOYOUSEE = list(""WALKINGRUNNING"")), filters = list()))",1,1,COYOTE,NA,1,010CM,NO,NA,NO,0,0,0,0,0,0,0,1,31428467,Pine ,DEG,15_14_DEG_000052.JPG,15_14_DEG_000053.JPG,15_14_DEG_000054.JPG,15,14,1,1,3,1,1,3,2,1
31428468,4,4,1,3,DEERWHITETAILED,2,0.5,0.5,1,1,1,0,0,0,0.5,0,0,0,1,155213333,barthelmess,123.17,1,T0,NA,"list(list(choice = ""DEERWHITETAILED"", answers = list(HOWMANY = ""1"", SNOWDEPTH = ""1020CM"", YOUNGPRESENT = ""NO"", ANTLERSPRESENT = ""NO"", PRECIPITATIONRAINSNOW = ""NO"", WHATBEHAVIORSDOYOUSEE = list(""WALKINGRUNNING"", ""FORAGINGEATING"")), filters = list()))",1,1,DEERWHITETAILED,NA,1,1020CM,NO,NO,NO,0,0,0,1,0,0,0,1,31428468,Pine ,DEG,15_14_DEG_000055.JPG,15_14_DEG_000056.JPG,15_14_DEG_000057.JPG,15,14,1,1,4,1,1,4,3,1
31428469,5,5,1,1,DEERWHITETAILED,5,1,1,1,1,2,0,0,0,0.6,0,0,0.6,0.2,155210963,barthelmess,123.17,1,T0,NA,"list(list(choice = ""DEERWHITETAILED"", answers = list(HOWMANY = ""2"", SNOWDEPTH = ""010CM"", ANTLERSPRESENT = ""NO"", PRECIPITATIONRAINSNOW = ""NO"", WHATBEHAVIORSDOYOUSEE = list(""FORAGINGEATING"", ""SITTINGSTANDINGLYING"")), filters = list()))",1,1,DEERWHITETAILED,NA,2,010CM,NA,NO,NO,0,0,0,1,0,0,1,0,31428469,Pine ,DEG,15_14_DEG_000058.JPG,15_14_DEG_000059.JPG,15_14_DEG_000060.JPG,15,14,1,1,5,1,1,5,1,1
31428470,4,4,1,1,DEERWHITETAILED,4,1,1,1,1,1,0,0,0,0,0,0,0.75,0.25,154687630,MWillis875,123.17,1,T0,NA,"list(list(choice = ""DEERWHITETAILED"", answers = list(HOWMANY = ""1"", SNOWDEPTH = ""010CM"", YOUNGPRESENT = ""NO"", ANTLERSPRESENT = ""NO"", PRECIPITATIONRAINSNOW = ""NO"", WHATBEHAVIORSDOYOUSEE = list(""SITTINGSTANDINGLYING"")), filters = list()))",1,1,DEERWHITETAILED,NA,1,010CM,NO,NO,NO,0,0,0,0,0,0,1,0,31428470,Pine ,DEG,15_14_DEG_000061.JPG,15_14_DEG_000062.JPG,15_14_DEG_000063.JPG,15,14,1,1,4,1,1,4,1,1
31428471,2,2,1,1,DEERWHITETAILED,2,1,1,1,1,1,0,0,0,1,0,0,0.5,0,156170884,keandy16,123.17,1,T0,NA,"list(list(choice = ""DEERWHITETAILED"", answers = list(HOWMANY = ""1"", SNOWDEPTH = ""010CM"", YOUNGPRESENT = ""NO"", ANTLERSPRESENT = ""NO"", PRECIPITATIONRAINSNOW = ""NO"", WHATBEHAVIORSDOYOUSEE = list(""FORAGINGEATING"")), filters = list()))",1,1,DEERWHITETAILED,NA,1,010CM,NO,NO,NO,0,0,0,1,0,0,0,0,31428471,Pine ,DEG,15_14_DEG_000064.JPG,15_14_DEG_000065.JPG,15_14_DEG_000066.JPG,15,14,1,1,2,1,1,2,1,1
31428472,6,6,1,1,DEERWHITETAILED,6,1,1,1,1,1,0,0,0,0.666666667,0,0,0.5,0.166666667,154689864,Hartk,123.17,1,T0,NA,"list(list(choice = ""DEERWHITETAILED"", answers = list(HOWMANY = ""1"", SNOWDEPTH = ""1020CM"", YOUNGPRESENT = ""NO"", ANTLERSPRESENT = ""NO"", PRECIPITATIONRAINSNOW = ""NO"", WHATBEHAVIORSDOYOUSEE = list(""FORAGINGEATING"")), filters = list()))",1,1,DEERWHITETAILED,NA,1,1020CM,NO,NO,NO,0,0,0,1,0,0,0,0,31428472,Pine ,DEG,15_14_DEG_000067.JPG,15_14_DEG_000068.JPG,15_14_DEG_000069.JPG,15,14,1,1,6,1,1,6,1,1
31428473,6,6,1,1,NOTHINGHERE,6,1,1,NA,NA,NA,NA,NA,NA,NA,NA,NA,NA,NA,154311373,keandy16,123.17,1,T0,NA,"list(list(choice = ""NOTHINGHERE"", answers = list(), filters = list()))",1,1,NOTHINGHERE,NA,NA,NA,NA,NA,NA,NA,NA,NA,NA,NA,NA,NA,NA,31428473,Pine ,DEG,15_14_DEG_000070.JPG,15_14_DEG_000071.JPG,15_14_DEG_000072.JPG,15,14,1,1,6,1,1,6,1,1
31428474,3,3,1,1,DEERWHITETAILED,3,1,1,NA,NA,NA,0,0,0,0,0,0,0.666666667,0.333333333,155211826,barthelmess,123.17,1,T0,NA,"list(list(choice = ""DEERWHITETAILED"", answers = list(HOWMANY = ""1"", SNOWDEPTH = ""010CM"", YOUNGPRESENT = ""NO"", ANTLERSPRESENT = ""NO"", PRECIPITATIONRAINSNOW = ""NO"", WHATBEHAVIORSDOYOUSEE = list(""WALKINGRUNNING"")), filters = list()))",1,1,DEERWHITETAILED,NA,1,010CM,NO,NO,NO,0,0,0,0,0,0,0,1,31428474,Pine ,DEG,15_14_DEG_000073.JPG,15_14_DEG_000074.JPG,15_14_DEG_000075.JPG,15,14,1,1,3,1,1,3,1,1
31428475,5,5,1,1,DEERWHITETAILED,5,1,1,1,1,1,0,0,0,0,0,0,0,1,155776038,keandy16,123.17,1,T0,NA,"list(list(choice = ""DEERWHITETAILED"", answers = list(HOWMANY = ""1"", SNOWDEPTH = ""1020CM"", YOUNGPRESENT = ""NO"", PRECIPITATIONRAINSNOW = ""NO"", WHATBEHAVIORSDOYOUSEE = list(""WALKINGRUNNING"")), filters = list()))",1,1,DEERWHITETAILED,NA,1,1020CM,NO,NA,NO,0,0,0,0,0,0,0,1,31428475,Pine ,DEG,15_14_DEG_000076.JPG,15_14_DEG_000077.JPG,15_14_DEG_000078.JPG,15,14,1,1,5,1,1,5,1,1
31428476,5,5,1,1,DEERWHITETAILED,5,1,1,1,1,1,0,0,0,0,0,0,0,1,154691385,abuckley2681,123.17,1,T0,NA,"list(list(choice = ""DEERWHITETAILED"", answers = list(HOWMANY = ""1"", SNOWDEPTH = ""010CM"", YOUNGPRESENT = ""NO"", ANTLERSPRESENT = ""YES"", PRECIPITATIONRAINSNOW = ""NO"", WHATBEHAVIORSDOYOUSEE = list(""WALKINGRUNNING"")), filters = list()))",1,1,DEERWHITETAILED,NA,1,010CM,NO,YES,NO,0,0,0,0,0,0,0,1,31428476,Pine ,DEG,15_14_DEG_000079.JPG,15_14_DEG_000080.JPG,15_14_DEG_000081.JPG,15,14,1,1,5,1,1,5,1,1
31428477,6,6,1,1,DEERWHITETAILED,6,1,1,1,1,1,0,0,0,0.5,0,0,0,0.833333333,155210836,barthelmess,123.17,1,T0,NA,"list(list(choice = ""DEERWHITETAILED"", answers = list(HOWMANY = ""1"", SNOWDEPTH = ""1020CM"", YOUNGPRESENT = ""NO"", ANTLERSPRESENT = ""YES"", PRECIPITATIONRAINSNOW = ""NO"", WHATBEHAVIORSDOYOUSEE = list(""WALKINGRUNNING"")), filters = list()))",1,1,DEERWHITETAILED,NA,1,1020CM,NO,YES,NO,0,0,0,0,0,0,0,1,31428477,Pine ,DEG,15_14_DEG_000082.JPG,15_14_DEG_000083.JPG,15_14_DEG_000084.JPG,15,14,1,1,6,1,1,6,1,1
31428478,3,3,1,1,DEERWHITETAILED,3,1,1,2,2,2,0,0,0,0.333333333,0,0,0,0.666666667,153841347,NatureUpNorth,123.17,1,T0,NA,"list(list(choice = ""DEERWHITETAILED"", answers = list(HOWMANY = ""2"", SNOWDEPTH = ""010CM"", YOUNGPRESENT = ""YES"", ANTLERSPRESENT = ""NO"", PRECIPITATIONRAINSNOW = ""NO"", WHATBEHAVIORSDOYOUSEE = list(""WALKINGRUNNING"")), filters = list()))",1,1,DEERWHITETAILED,NA,2,010CM,YES,NO,NO,0,0,0,0,0,0,0,1,31428478,Pine ,DEG,15_14_DEG_000085.JPG,15_14_DEG_000086.JPG,15_14_DEG_000087.JPG,15,14,1,1,3,1,1,3,1,1
31428479,4,4,1,1,DEERWHITETAILED,4,1,1,1,1,1,0,0,0,0,0,0,0,1,155972745,LJKinsey,123.17,1,T0,NA,"list(list(choice = ""DEERWHITETAILED"", answers = list(HOWMANY = ""1"", SNOWDEPTH = ""010CM"", YOUNGPRESENT = ""NO"", PRECIPITATIONRAINSNOW = ""NO"", WHATBEHAVIORSDOYOUSEE = list(""WALKINGRUNNING"")), filters = list()))",1,1,DEERWHITETAILED,NA,1,010CM,NO,NA,NO,0,0,0,0,0,0,0,1,31428479,Pine ,DEG,15_14_DEG_000088.JPG,15_14_DEG_000089.JPG,15_14_DEG_000090.JPG,15,14,1,1,4,1,1,4,1,1
31428480,7,7,1,1,DEERWHITETAILED,7,1,1,NA,NA,NA,0,0,0,0,0,0,0,1,153959449,not-logged-in-b86bd8494fea4a05114e,123.17,1,T0,NA,"list(list(choice = ""DEERWHITETAILED"", answers = list(), filters = list()))",1,1,DEERWHITETAILED,NA,NA,NA,NA,NA,NA,NA,NA,NA,NA,NA,NA,NA,NA,31428480,Pine ,DEG,15_14_DEG_000091.JPG,15_14_DEG_000092.JPG,15_14_DEG_000093.JPG,15,14,1,1,7,1,1,7,1,1
31428481,5,5,1,1,DEERWHITETAILED,5,1,1,1,1,1,0,0,0,0,0,0,0,1,154690245,MWillis875,123.17,1,T0,NA,"list(list(choice = ""DEERWHITETAILED"", answers = list(HOWMANY = ""1"", SNOWDEPTH = ""010CM"", YOUNGPRESENT = ""NO"", ANTLERSPRESENT = ""YES"", PRECIPITATIONRAINSNOW = ""NO"", WHATBEHAVIORSDOYOUSEE = list(""WALKINGRUNNING"")), filters = list()))",1,1,DEERWHITETAILED,NA,1,010CM,NO,YES,NO,0,0,0,0,0,0,0,1,31428481,Pine ,DEG,15_14_DEG_000094.JPG,15_14_DEG_000095.JPG,15_14_DEG_000096.JPG,15,14,1,1,5,1,1,5,1,1
31428482,4,4,1,1,DEERWHITETAILED,4,1,1,1,1,1,0,0,0,0,0,0,0,1,154689451,Hartk,123.17,1,T0,NA,"list(list(choice = ""DEERWHITETAILED"", answers = list(HOWMANY = ""1"", SNOWDEPTH = ""1020CM"", YOUNGPRESENT = ""NO"", ANTLERSPRESENT = ""NO"", PRECIPITATIONRAINSNOW = ""NO"", WHATBEHAVIORSDOYOUSEE = list(""WALKINGRUNNING"")), filters = list()))",1,1,DEERWHITETAILED,NA,1,1020CM,NO,NO,NO,0,0,0,0,0,0,0,1,31428482,Pine ,DEG,15_14_DEG_000097.JPG,15_14_DEG_000098.JPG,15_14_DEG_000099.JPG,15,14,1,1,4,1,1,4,1,1
31428483,5,5,1,1,DEERWHITETAILED,5,1,1,1,1,1,0,0,0,0,0,0,0,1,155211324,barthelmess,123.17,1,T0,NA,"list(list(choice = ""DEERWHITETAILED"", answers = list(HOWMANY = ""1"", SNOWDEPTH = ""010CM"", PRECIPITATIONRAINSNOW = ""NO"", WHATBEHAVIORSDOYOUSEE = list(""WALKINGRUNNING"")), filters = list()))",1,1,DEERWHITETAILED,NA,1,010CM,NA,NA,NO,0,0,0,0,0,0,0,1,31428483,Pine ,DEG,15_14_DEG_000100.JPG,15_14_DEG_000101.JPG,15_14_DEG_000102.JPG,15,14,1,1,5,1,1,5,1,1
31428484,4,4,1,1,DEERWHITETAILED,4,1,1,1,1,1,0,0,0,0,0,0,0,1,155953388,anvon15,123.17,1,T0,NA,"list(list(choice = ""DEERWHITETAILED"", answers = list(HOWMANY = ""1"", SNOWDEPTH = ""010CM"", YOUNGPRESENT = ""NO"", ANTLERSPRESENT = ""NO"", PRECIPITATIONRAINSNOW = ""NO"", WHATBEHAVIORSDOYOUSEE = list(""WALKINGRUNNING"")), filters = list()))",1,1,DEERWHITETAILED,NA,1,010CM,NO,NO,NO,0,0,0,0,0,0,0,1,31428484,Pine ,DEG,15_14_DEG_000103.JPG,15_14_DEG_000104.JPG,15_14_DEG_000105.JPG,15,14,1,1,4,1,1,4,1,1
31428485,8,8,1,1,COYOTE,8,1,1,1,1,1,0,0,0,0,0,0,0,1,154694404,Hartk,123.17,1,T0,NA,"list(list(choice = ""COYOTE"", answers = list(HOWMANY = ""1"", SNOWDEPTH = ""010CM"", YOUNGPRESENT = ""NO"", PRECIPITATIONRAINSNOW = ""NO"", WHATBEHAVIORSDOYOUSEE = list(""WALKINGRUNNING"")), filters = list(TYPE = ""DOGLIKECARNIVORE"")))",1,1,COYOTE,NA,1,010CM,NO,NA,NO,0,0,0,0,0,0,0,1,31428485,Pine ,DEG,15_14_DEG_000106.JPG,15_14_DEG_000107.JPG,NA,15,14,1,1,8,1,1,8,1,1
31428486,4,4,1,1,DEERWHITETAILED,4,1,1,1,1,1,0,0,0,0,0,0,0,1,154691776,abuckley2681,123.17,1,T0,NA,"list(list(choice = ""DEERWHITETAILED"", answers = list(HOWMANY = ""1"", SNOWDEPTH = ""1020CM"", YOUNGPRESENT = ""NO"", PRECIPITATIONRAINSNOW = ""NO"", WHATBEHAVIORSDOYOUSEE = list(""WALKINGRUNNING"")), filters = list()))",1,1,DEERWHITETAILED,NA,1,1020CM,NO,NA,NO,0,0,0,0,0,0,0,1,31428486,Pine ,DEG,15_14_DEG_000109.JPG,15_14_DEG_000110.JPG,15_14_DEG_000111.JPG,15,14,1,1,4,1,1,4,1,1
31428487,3,3,1,1,DEERWHITETAILED,3,1,1,1,1,1,0,0,0,0,0,0,0,1,156709698,seauch15,123.17,1,T0,NA,"list(list(choice = ""DEERWHITETAILED"", answers = list(HOWMANY = ""1"", SNOWDEPTH = ""1020CM"", YOUNGPRESENT = ""NO"", ANTLERSPRESENT = ""NO"", PRECIPITATIONRAINSNOW = ""NO"", WHATBEHAVIORSDOYOUSEE = list(""WALKINGRUNNING"")), filters = list()))",1,1,DEERWHITETAILED,NA,1,1020CM,NO,NO,NO,0,0,0,0,0,0,0,1,31428487,Pine ,DEG,15_14_DEG_000112.JPG,15_14_DEG_000113.JPG,15_14_DEG_000114.JPG,15,14,1,1,3,1,1,3,1,1
31428488,4,4,1,2,DEERWHITETAILED,3,0.75,0.75,1,1,1,0,0,0,1,0,0,0.333333333,0,155879014,barthelmess,123.17,1,T0,NA,"list(list(choice = ""DEERWHITETAILED"", answers = list(HOWMANY = ""1"", SNOWDEPTH = ""2030CM"", ANTLERSPRESENT = ""NO"", PRECIPITATIONRAINSNOW = ""NO"", WHATBEHAVIORSDOYOUSEE = list(""FORAGINGEATING"", ""SITTINGSTANDINGLYING"")), filters = list()))",1,1,DEERWHITETAILED,NA,1,2030CM,NA,NO,NO,0,0,0,1,0,0,1,0,31428488,Pine ,DEG,15_14_DEG_000118.JPG,15_14_DEG_000119.JPG,15_14_DEG_000120.JPG,15,14,1,1,4,1,1,4,2,1
31428489,3,3,1,1,DEERWHITETAILED,3,1,1,1,1,1,0,0,0,0.666666667,0,0,0.333333333,0,156725874,seauch15,123.17,1,T0,NA,"list(list(choice = ""DEERWHITETAILED"", answers = list(HOWMANY = ""1"", SNOWDEPTH = ""1020CM"", YOUNGPRESENT = ""NO"", ANTLERSPRESENT = ""NO"", PRECIPITATIONRAINSNOW = ""NO"", WHATBEHAVIORSDOYOUSEE = list(""SITTINGSTANDINGLYING"")), filters = list()))",1,1,DEERWHITETAILED,NA,1,1020CM,NO,NO,NO,0,0,0,0,0,0,1,0,31428489,Pine ,DEG,15_14_DEG_000121.JPG,15_14_DEG_000122.JPG,15_14_DEG_000123.JPG,15,14,1,1,3,1,1,3,1,1
31428490,3,3,1,1,DEERWHITETAILED,3,1,1,1,1,1,0,0,0,0.333333333,0,0,0.666666667,0,155211588,barthelmess,123.17,1,T0,NA,"list(list(choice = ""DEERWHITETAILED"", answers = list(HOWMANY = ""1"", SNOWDEPTH = ""2030CM"", ANTLERSPRESENT = ""NO"", PRECIPITATIONRAINSNOW = ""NO"", WHATBEHAVIORSDOYOUSEE = list(""SITTINGSTANDINGLYING"")), filters = list()))",1,1,DEERWHITETAILED,NA,1,2030CM,NA,NO,NO,0,0,0,0,0,0,1,0,31428490,Pine ,DEG,15_14_DEG_000124.JPG,15_14_DEG_000125.JPG,15_14_DEG_000126.JPG,15,14,1,1,3,1,1,3,1,1
31428491,7,7,1,1,TURKEY,7,1,1,1,1,1,0,0,0,0.142857143,0,0,0,0.857142857,154692033,HMonnat,123.17,1,T0,NA,"list(list(choice = ""TURKEY"", answers = list(HOWMANY = ""1"", SNOWDEPTH = ""1020CM"", YOUNGPRESENT = ""NO"", PRECIPITATIONRAINSNOW = ""NO"", WHATBEHAVIORSDOYOUSEE = list(""WALKINGRUNNING"")), filters = list()))",1,1,TURKEY,NA,1,1020CM,NO,NA,NO,0,0,0,0,0,0,0,1,31428491,Pine ,DEG,15_14_DEG_000127.JPG,15_14_DEG_000128.JPG,15_14_DEG_000129.JPG,15,14,1,1,7,1,1,7,1,1
31428492,4,4,1,1,SOMETHINGHERE,4,1,1,NA,NA,NA,NA,NA,NA,NA,NA,NA,NA,NA,156320675,anvon15,123.17,1,T0,NA,"list(list(choice = ""SOMETHINGHERE"", answers = list(), filters = list()))",1,1,SOMETHINGHERE,NA,NA,NA,NA,NA,NA,NA,NA,NA,NA,NA,NA,NA,NA,31428492,Pine ,DEG,15_14_DEG_000130.JPG,15_14_DEG_000131.JPG,15_14_DEG_000132.JPG,15,14,1,1,4,1,1,4,1,1
31428493,4,4,1,1,DEERWHITETAILED,4,1,1,1,1,1,0,0,0,0,0,0,0,1,154694096,not-logged-in-42881cd7c1c2c2f4d1fc,123.17,1,T0,NA,"list(list(choice = ""DEERWHITETAILED"", answers = list(HOWMANY = ""1"", SNOWDEPTH = ""010CM"", YOUNGPRESENT = ""NO"", ANTLERSPRESENT = ""NO"", WHATBEHAVIORSDOYOUSEE = list(""WALKINGRUNNING"")), filters = list()))",1,1,DEERWHITETAILED,NA,1,010CM,NO,NO,NA,0,0,0,0,0,0,0,1,31428493,Pine ,DEG,15_14_DEG_000133.JPG,15_14_DEG_000134.JPG,15_14_DEG_000135.JPG,15,14,1,1,4,1,1,4,1,1
31428494,5,5,1,1,DEERWHITETAILED,5,1,1,1,1,1,0,0,0,0,0,0,0,1,156482149,kdmccr18,123.17,1,T0,NA,"list(list(choice = ""DEERWHITETAILED"", answers = list(HOWMANY = ""1"", SNOWDEPTH = ""3040CM"", YOUNGPRESENT = ""NO"", ANTLERSPRESENT = ""NO"", PRECIPITATIONRAINSNOW = ""NO"", WHATBEHAVIORSDOYOUSEE = list(""WALKINGRUNNING"")), filters = list()))",1,1,DEERWHITETAILED,NA,1,3040CM,NO,NO,NO,0,0,0,0,0,0,0,1,31428494,Pine ,DEG,15_14_DEG_000139.JPG,15_14_DEG_000140.JPG,15_14_DEG_000141.JPG,15,14,1,1,5,1,1,5,1,1
31428495,4,4,1,1,DEERWHITETAILED,4,1,1,1,1,1,0,0,0,0.5,0,0,0,1,156327413,anvon15,123.17,1,T0,NA,"list(list(choice = ""DEERWHITETAILED"", answers = list(HOWMANY = ""1"", YOUNGPRESENT = ""NO"", ANTLERSPRESENT = ""NO"", PRECIPITATIONRAINSNOW = ""NO"", WHATBEHAVIORSDOYOUSEE = list(""WALKINGRUNNING"")), filters = list()))",1,1,DEERWHITETAILED,NA,1,NA,NO,NO,NO,0,0,0,0,0,0,0,1,31428495,Pine ,DEG,15_14_DEG_000142.JPG,15_14_DEG_000143.JPG,15_14_DEG_000144.JPG,15,14,1,1,4,1,1,4,1,1
31428496,6,6,1,1,DEERWHITETAILED,6,1,1,1,1,1,0,0,0,0,0,0,0,1,155713315,anvon15,123.17,1,T0,NA,"list(list(choice = ""DEERWHITETAILED"", answers = list(HOWMANY = ""1"", SNOWDEPTH = ""3040CM"", YOUNGPRESENT = ""NO"", ANTLERSPRESENT = ""NO"", PRECIPITATIONRAINSNOW = ""NO"", WHATBEHAVIORSDOYOUSEE = list(""WALKINGRUNNING"")), filters = list()))",1,1,DEERWHITETAILED,NA,1,3040CM,NO,NO,NO,0,0,0,0,0,0,0,1,31428496,Pine ,DEG,15_14_DEG_000145.JPG,15_14_DEG_000146.JPG,15_14_DEG_000147.JPG,15,14,1,1,6,1,1,6,1,1
31428497,5,5,1,1,NOTHINGHERE,5,1,1,NA,NA,NA,NA,NA,NA,NA,NA,NA,NA,NA,156034672,keandy16,123.17,1,T0,NA,"list(list(choice = ""NOTHINGHERE"", answers = list(), filters = list()))",1,1,NOTHINGHERE,NA,NA,NA,NA,NA,NA,NA,NA,NA,NA,NA,NA,NA,NA,31428497,Pine ,DEG,15_14_DEG_000148.JPG,15_14_DEG_000149.JPG,15_14_DEG_000150.JPG,15,14,1,1,5,1,1,5,1,1
31428498,2,2,1,1,DEERWHITETAILED,2,1,1,1,1,1,0,0,0,0,0,0,0,1,156173594,keandy16,123.17,1,T0,NA,"list(list(choice = ""DEERWHITETAILED"", answers = list(HOWMANY = ""1"", YOUNGPRESENT = ""NO"", ANTLERSPRESENT = ""NO"", PRECIPITATIONRAINSNOW = ""NO"", WHATBEHAVIORSDOYOUSEE = list(""WALKINGRUNNING"")), filters = list()))",1,1,DEERWHITETAILED,NA,1,NA,NO,NO,NO,0,0,0,0,0,0,0,1,31428498,Pine ,DEG,15_14_DEG_000151.JPG,15_14_DEG_000152.JPG,15_14_DEG_000153.JPG,15,14,1,1,2,1,1,2,1,1
31428499,4,4,1,2,SOMETHINGHERE,3,0.75,0.75,NA,NA,NA,NA,NA,NA,NA,NA,NA,NA,NA,154694532,MWillis875,123.17,1,T0,NA,"list(list(choice = ""SOMETHINGHERE"", answers = list(), filters = list()))",1,1,SOMETHINGHERE,NA,NA,NA,NA,NA,NA,NA,NA,NA,NA,NA,NA,NA,NA,31428499,Pine ,DEG,15_14_DEG_000154.JPG,15_14_DEG_000155.JPG,15_14_DEG_000156.JPG,15,14,1,1,4,1,1,4,2,1
31428500,4,4,1,1,DEERWHITETAILED,4,1,1,1,1,1,0,0,0,0.25,0,0,0,1,156440559,brigidbarstow,123.17,1,T0,NA,"list(list(choice = ""DEERWHITETAILED"", answers = list(HOWMANY = ""1"", SNOWDEPTH = ""3040CM"", YOUNGPRESENT = ""NO"", ANTLERSPRESENT = ""NO"", PRECIPITATIONRAINSNOW = ""NO"", WHATBEHAVIORSDOYOUSEE = list(""WALKINGRUNNING"")), filters = list()))",1,1,DEERWHITETAILED,NA,1,3040CM,NO,NO,NO,0,0,0,0,0,0,0,1,31428500,Pine ,DEG,15_14_DEG_000157.JPG,15_14_DEG_000158.JPG,15_14_DEG_000159.JPG,15,14,1,1,4,1,1,4,1,1
31428501,2,2,1,1,DEERWHITETAILED,2,1,1,1,1,1,0,0,0,0,0,0,0,1,155883609,barthelmess,123.17,1,T0,NA,"list(list(choice = ""DEERWHITETAILED"", answers = list(HOWMANY = ""1"", YOUNGPRESENT = ""NO"", PRECIPITATIONRAINSNOW = ""NO"", WHATBEHAVIORSDOYOUSEE = list(""WALKINGRUNNING"")), filters = list()))",1,1,DEERWHITETAILED,NA,1,NA,NO,NA,NO,0,0,0,0,0,0,0,1,31428501,Pine ,DEG,15_14_DEG_000160.JPG,15_14_DEG_000161.JPG,15_14_DEG_000162.JPG,15,14,1,1,2,1,1,2,1,1
31428502,5,5,1,1,DEERWHITETAILED,5,1,1,1,1,1,0,0,0,0.4,0,0,0,1,153959658,not-logged-in-b86bd8494fea4a05114e,123.17,1,T0,NA,"list(list(choice = ""DEERWHITETAILED"", answers = list(HOWMANY = ""1"", SNOWDEPTH = ""2030CM"", YOUNGPRESENT = ""NO"", ANTLERSPRESENT = ""NO"", PRECIPITATIONRAINSNOW = ""NO"", WHATBEHAVIORSDOYOUSEE = list(""WALKINGRUNNING"")), filters = list()))",1,1,DEERWHITETAILED,NA,1,2030CM,NO,NO,NO,0,0,0,0,0,0,0,1,31428502,Pine ,DEG,15_14_DEG_000163.JPG,15_14_DEG_000164.JPG,15_14_DEG_000165.JPG,15,14,1,1,5,1,1,5,1,1
31428503,1,1,1,1,NOTHINGHERE,1,1,1,NA,NA,NA,NA,NA,NA,NA,NA,NA,NA,NA,156710877,seauch15,123.17,1,T0,NA,"list(list(choice = ""NOTHINGHERE"", answers = list(), filters = list()))",1,1,NOTHINGHERE,NA,NA,NA,NA,NA,NA,NA,NA,NA,NA,NA,NA,NA,NA,31428503,Pine ,DEG,15_14_DEG_000166.JPG,15_14_DEG_000167.JPG,15_14_DEG_000168.JPG,15,14,1,1,1,1,1,1,1,1
31428504,3,3,1,1,DEERWHITETAILED,3,1,1,1,1,1,0,0,0,0,0,0,0,1,155952898,anvon15,123.17,1,T0,NA,"list(list(choice = ""DEERWHITETAILED"", answers = list(HOWMANY = ""1"", SNOWDEPTH = ""50CM"", YOUNGPRESENT = ""NO"", ANTLERSPRESENT = ""NO"", PRECIPITATIONRAINSNOW = ""NO"", WHATBEHAVIORSDOYOUSEE = list(""WALKINGRUNNING"")), filters = list()))",1,1,DEERWHITETAILED,NA,1,50CM,NO,NO,NO,0,0,0,0,0,0,0,1,31428504,Pine ,DEG,15_14_DEG_000169.JPG,15_14_DEG_000170.JPG,15_14_DEG_000171.JPG,15,14,1,1,3,1,1,3,1,1
31428505,4,4,1,1,DEERWHITETAILED,4,1,1,1,1,1,0,0,0,0,0,0,0,1,155947514,anvon15,123.17,1,T0,NA,"list(list(choice = ""DEERWHITETAILED"", answers = list(HOWMANY = ""1"", SNOWDEPTH = ""4050CM"", YOUNGPRESENT = ""NO"", ANTLERSPRESENT = ""NO"", PRECIPITATIONRAINSNOW = ""YES"", WHATBEHAVIORSDOYOUSEE = list(""WALKINGRUNNING"")), filters = list()))",1,1,DEERWHITETAILED,NA,1,4050CM,NO,NO,YES,0,0,0,0,0,0,0,1,31428505,Pine ,DEG,15_14_DEG_000172.JPG,15_14_DEG_000173.JPG,15_14_DEG_000174.JPG,15,14,1,1,4,1,1,4,1,1
31428506,3,3,1,1,DEERWHITETAILED,3,1,1,2,2,2,0,0,0,0.333333333,0,0,0.666666667,1,154692275,not-logged-in-d0b06505b62640b2f255,123.17,1,T0,NA,"list(list(choice = ""DEERWHITETAILED"", answers = list(HOWMANY = ""2"", YOUNGPRESENT = ""NO"", ANTLERSPRESENT = ""NO"", PRECIPITATIONRAINSNOW = ""NO"", WHATBEHAVIORSDOYOUSEE = list(""WALKINGRUNNING"", ""SITTINGSTANDINGLYING"")), filters = list()))",1,1,DEERWHITETAILED,NA,2,NA,NO,NO,NO,0,0,0,0,0,0,1,1,31428506,Pine ,DEG,15_14_DEG_000175.JPG,15_14_DEG_000176.JPG,15_14_DEG_000177.JPG,15,14,1,1,3,1,1,3,1,1
31428507,4,4,1,1,DEERWHITETAILED,4,1,1,1,1,1,0,0,0,0,0,0,0,1,155770969,keandy16,123.17,1,T0,NA,"list(list(choice = ""DEERWHITETAILED"", answers = list(HOWMANY = ""1"", YOUNGPRESENT = ""NO"", ANTLERSPRESENT = ""NO"", PRECIPITATIONRAINSNOW = ""NO"", WHATBEHAVIORSDOYOUSEE = list(""WALKINGRUNNING"")), filters = list()))",1,1,DEERWHITETAILED,NA,1,NA,NO,NO,NO,0,0,0,0,0,0,0,1,31428507,Pine ,DEG,15_14_DEG_000178.JPG,15_14_DEG_000179.JPG,15_14_DEG_000180.JPG,15,14,1,1,4,1,1,4,1,1
