"","X1","classification_id","subject_ids","user_name","workflow_version","task_index","task","task_label","value","total_submissions","submission_index","choice","choice.1","Number","SnowDepth","Young","Antlers","Precipitation","behavior_CLIMBING","behavior_DIGGING","behavior_FLYING","behavior_FORAGINGEATING","behavior_INTERACTING","behavior_OTHER","behavior_SITTINGSTANDINGLYING","behavior_WALKINGRUNNING","subject_ids_1","ForestType","ForestName","Image1","Image2","Image3","Camera","SDCard","PhotoBatch","Class_Round"
"1",1,153661836,31428949,"barthelmess",123.17,1,"T0",NA,"list(list(choice = ""DEERWHITETAILED"", answers = list(HOWMANY = ""1"", SNOWDEPTH = ""010CM"", YOUNGPRESENT = ""NO"", ANTLERSPRESENT = ""NO"", PRECIPITATIONRAINSNOW = ""NO"", WHATBEHAVIORSDOYOUSEE = list(""FORAGINGEATING"", ""SITTINGSTANDINGLYING"")), filters = list()))",1,1,"DEERWHITETAILED",NA,1,"010CM","NO","NO","NO",0,0,0,1,0,0,1,0,31428949,"Pine","DEG","29_19_DEG_0049.JPG","29_19_DEG_0050.JPG","29_19_DEG_0051.JPG",29,19,1,1
"2",2,153661987,31428586,"barthelmess",123.17,1,"T0",NA,"list(list(choice = ""DEERWHITETAILED"", answers = list(HOWMANY = ""1"", YOUNGPRESENT = ""NO"", ANTLERSPRESENT = ""NO"", PRECIPITATIONRAINSNOW = ""NO"", WHATBEHAVIORSDOYOUSEE = list(""SITTINGSTANDINGLYING"")), filters = list()))",1,1,"DEERWHITETAILED",NA,1,NA,"NO","NO","NO",0,0,0,0,0,0,1,0,31428586,"Deciduous","BC","17_24_BC_000172.JPG","17_24_BC_000173.JPG","17_24_BC_000174.JPG",17,24,1,1
"3",3,153662178,31429018,"barthelmess",123.17,1,"T0",NA,"list(list(choice = ""DEERWHITETAILED"", answers = list(HOWMANY = ""1"", SNOWDEPTH = ""3040CM"", YOUNGPRESENT = ""NO"", PRECIPITATIONRAINSNOW = ""NO"", WHATBEHAVIORSDOYOUSEE = list(""WALKINGRUNNING"")), filters = list()))",1,1,"DEERWHITETAILED",NA,1,"3040CM","NO",NA,"NO",0,0,0,0,0,0,0,1,31429018,"Pine","DEG","29_19_DEG_0274.JPG","29_19_DEG_0275.JPG","29_19_DEG_0276.JPG",29,19,1,1
"4",4,153662968,31428530,"barthelmess",123.17,1,"T0",NA,"list(list(choice = ""DEERWHITETAILED"", answers = list(HOWMANY = ""2"", YOUNGPRESENT = ""NO"", ANTLERSPRESENT = ""NO"", PRECIPITATIONRAINSNOW = ""NO"", WHATBEHAVIORSDOYOUSEE = list(""WALKINGRUNNING"")), filters = list()))",1,1,"DEERWHITETAILED",NA,2,NA,"NO","NO","NO",0,0,0,0,0,0,0,1,31428530,"Deciduous","BC","17_24_BC_000004.JPG","17_24_BC_000005.JPG","17_24_BC_000006.JPG",17,24,1,1
"5",5,153663123,31428910,"barthelmess",123.17,1,"T0",NA,"list(list(choice = ""OTHERSMALLMAMMAL"", answers = list(HOWMANY = ""1"", SNOWDEPTH = ""010CM"", YOUNGPRESENT = ""NO"", PRECIPITATIONRAINSNOW = ""NO"", WHATBEHAVIORSDOYOUSEE = list(""WALKINGRUNNING"")), filters = list()))",1,1,"OTHERSMALLMAMMAL",NA,1,"010CM","NO",NA,"NO",0,0,0,0,0,0,0,1,31428910,"Deciduous","SH","25_09_SH_0048.JPG","25_09_SH_0049.JPG","25_09_SH_0050.JPG",25,9,1,1
"6",6,153663191,31428697,"barthelmess",123.17,1,"T0",NA,"list(list(choice = ""NOTHINGHERE"", answers = list(), filters = list()))",1,1,"NOTHINGHERE",NA,NA,NA,NA,NA,NA,NA,NA,NA,NA,NA,NA,NA,NA,31428697,"Deciduous","DON","21_21_DON_0165.JPG","21_21_DON_0166.JPG","21_21_DON_0167.JPG",21,21,1,1
"7",7,153663312,31428678,"barthelmess",123.17,1,"T0",NA,"list(list(choice = ""NOTHINGHERE"", answers = list(), filters = list()))",1,1,"NOTHINGHERE",NA,NA,NA,NA,NA,NA,NA,NA,NA,NA,NA,NA,NA,NA,31428678,"Deciduous","DON","21_21_DON_0108.JPG","21_21_DON_0109.JPG","21_21_DON_0110.JPG",21,21,1,1
"8",8,153663452,31428399,"barthelmess",123.17,1,"T0",NA,"list(list(choice = ""SQUIRRELGRAY"", answers = list(HOWMANY = ""2"", SNOWDEPTH = ""010CM"", YOUNGPRESENT = ""NO"", PRECIPITATIONRAINSNOW = ""NO"", WHATBEHAVIORSDOYOUSEE = list(""WALKINGRUNNING"", ""FORAGINGEATING"")), filters = list()))",1,1,"SQUIRRELGRAY",NA,2,"010CM","NO",NA,"NO",0,0,0,1,0,0,0,1,31428399,"Deciduous","BC","11_13_BC_000256.JPG","11_13_BC_000257.JPG","11_13_BC_000258.JPG",11,13,1,1
"9",9,153663590,31429004,"barthelmess",123.17,1,"T0",NA,"list(list(choice = ""DEERWHITETAILED"", answers = list(HOWMANY = ""1"", SNOWDEPTH = ""010CM"", YOUNGPRESENT = ""NO"", ANTLERSPRESENT = ""NO"", PRECIPITATIONRAINSNOW = ""NO"", WHATBEHAVIORSDOYOUSEE = list(""WALKINGRUNNING"")), filters = list()))",1,1,"DEERWHITETAILED",NA,1,"010CM","NO","NO","NO",0,0,0,0,0,0,0,1,31429004,"Pine","DEG","29_19_DEG_0232.JPG","29_19_DEG_0233.JPG","29_19_DEG_0234.JPG",29,19,1,1
"10",10,153663734,31428563,"barthelmess",123.17,1,"T0",NA,"list(list(choice = ""DEERWHITETAILED"", answers = list(HOWMANY = ""1"", YOUNGPRESENT = ""NO"", ANTLERSPRESENT = ""NO"", PRECIPITATIONRAINSNOW = ""NO"", WHATBEHAVIORSDOYOUSEE = list(""WALKINGRUNNING"")), filters = list()))",1,1,"DEERWHITETAILED",NA,1,NA,"NO","NO","NO",0,0,0,0,0,0,0,1,31428563,"Deciduous","BC","17_24_BC_000103.JPG","17_24_BC_000104.JPG","17_24_BC_000105.JPG",17,24,1,1
"11",11,153664075,31428370,"barthelmess",123.17,1,"T0",NA,"list(list(choice = ""WEASEL"", answers = list(HOWMANY = ""1"", SNOWDEPTH = ""1020CM"", YOUNGPRESENT = ""NO"", PRECIPITATIONRAINSNOW = ""NO"", WHATBEHAVIORSDOYOUSEE = list(""WALKINGRUNNING"")), filters = list()))",1,1,"WEASEL",NA,1,"1020CM","NO",NA,"NO",0,0,0,0,0,0,0,1,31428370,"Deciduous","BC","11_13_BC_000169.JPG","11_13_BC_000170.JPG","11_13_BC_000171.JPG",11,13,1,1
"12",12,153664190,31428827,"barthelmess",123.17,1,"T0",NA,"list(list(choice = ""SQUIRRELGRAY"", answers = list(HOWMANY = ""1"", SNOWDEPTH = ""010CM"", YOUNGPRESENT = ""NO"", PRECIPITATIONRAINSNOW = ""NO"", WHATBEHAVIORSDOYOUSEE = list(""WALKINGRUNNING"")), filters = list()))",1,1,"SQUIRRELGRAY",NA,1,"010CM","NO",NA,"NO",0,0,0,0,0,0,0,1,31428827,"Deciduous","SH","23_03_SH_0007.JPG","23_03_SH_0008.JPG","23_03_SH_0009.JPG",23,3,1,1
"13",13,153664300,31428323,"barthelmess",123.17,1,"T0",NA,"list(list(choice = ""SQUIRRELGRAY"", answers = list(HOWMANY = ""1"", SNOWDEPTH = ""010CM"", YOUNGPRESENT = ""NO"", PRECIPITATIONRAINSNOW = ""NO"", WHATBEHAVIORSDOYOUSEE = list(""WALKINGRUNNING"")), filters = list()))",1,1,"SQUIRRELGRAY",NA,1,"010CM","NO",NA,"NO",0,0,0,0,0,0,0,1,31428323,"Deciduous","BC","11_13_BC_000025.JPG","11_13_BC_000026.JPG","11_13_BC_000027.JPG",11,13,1,1
"14",14,153664451,31428908,"barthelmess",123.17,1,"T0",NA,"list(list(choice = ""COYOTE"", answers = list(HOWMANY = ""1"", SNOWDEPTH = ""1020CM"", YOUNGPRESENT = ""NO"", PRECIPITATIONRAINSNOW = ""NO"", WHATBEHAVIORSDOYOUSEE = list(""WALKINGRUNNING"")), filters = list()))",1,1,"COYOTE",NA,1,"1020CM","NO",NA,"NO",0,0,0,0,0,0,0,1,31428908,"Deciduous","SH","25_09_SH_0042.JPG","25_09_SH_0043.JPG","25_09_SH_0044.JPG",25,9,1,1
"15",15,153664512,31428660,"barthelmess",123.17,1,"T0",NA,"list(list(choice = ""NOTHINGHERE"", answers = list(), filters = list()))",1,1,"NOTHINGHERE",NA,NA,NA,NA,NA,NA,NA,NA,NA,NA,NA,NA,NA,NA,31428660,"Deciduous","DON","21_21_DON_0054.JPG","21_21_DON_0055.JPG","21_21_DON_0056.JPG",21,21,1,1
"16",16,153664638,31428847,"barthelmess",123.17,1,"T0",NA,"list(list(choice = ""DEERWHITETAILED"", answers = list(HOWMANY = ""1"", YOUNGPRESENT = ""NO"", ANTLERSPRESENT = ""NO"", PRECIPITATIONRAINSNOW = ""NO"", WHATBEHAVIORSDOYOUSEE = list(""WALKINGRUNNING"")), filters = list()))",1,1,"DEERWHITETAILED",NA,1,NA,"NO","NO","NO",0,0,0,0,0,0,0,1,31428847,"Deciduous","SH","23_03_SH_0067.JPG","23_03_SH_0068.JPG","23_03_SH_0069.JPG",23,3,1,1
"17",17,153664738,31428589,"barthelmess",123.17,1,"T0",NA,"list(list(choice = ""DEERWHITETAILED"", answers = list(HOWMANY = ""1"", YOUNGPRESENT = ""NO"", ANTLERSPRESENT = ""NO"", PRECIPITATIONRAINSNOW = ""NO"", WHATBEHAVIORSDOYOUSEE = list(""WALKINGRUNNING"")), filters = list()))",1,1,"DEERWHITETAILED",NA,1,NA,"NO","NO","NO",0,0,0,0,0,0,0,1,31428589,"Deciduous","BC","17_24_BC_000181.JPG","17_24_BC_000182.JPG","17_24_BC_000183.JPG",17,24,1,1
"18",18,153664857,31428715,"barthelmess",123.17,1,"T0",NA,"list(list(choice = ""DEERWHITETAILED"", answers = list(HOWMANY = ""1"", SNOWDEPTH = ""010CM"", YOUNGPRESENT = ""NO"", ANTLERSPRESENT = ""YES"", PRECIPITATIONRAINSNOW = ""NO"", WHATBEHAVIORSDOYOUSEE = list(""WALKINGRUNNING"")), filters = list()))",1,1,"DEERWHITETAILED",NA,1,"010CM","NO","YES","NO",0,0,0,0,0,0,0,1,31428715,"Pine","WF","22_18_WF_0040.JPG","22_18_WF_0041.JPG","22_18_WF_0042.JPG",22,18,1,1
"19",19,153665062,31428782,"barthelmess",123.17,1,"T0",NA,"list(list(choice = ""DEERWHITETAILED"", answers = list(HOWMANY = ""1"", SNOWDEPTH = ""2030CM"", YOUNGPRESENT = ""NO"", ANTLERSPRESENT = ""NO"", PRECIPITATIONRAINSNOW = ""NO"", WHATBEHAVIORSDOYOUSEE = list(""WALKINGRUNNING"")), filters = list()))",1,1,"DEERWHITETAILED",NA,1,"2030CM","NO","NO","NO",0,0,0,0,0,0,0,1,31428782,"Pine","WF","22_18_WF_0244.JPG","22_18_WF_0245.JPG","22_18_WF_0246.JPG",22,18,1,1
"20",20,153665215,31429052,"barthelmess",123.17,1,"T0",NA,"list(list(choice = ""DEERWHITETAILED"", answers = list(HOWMANY = ""1"", SNOWDEPTH = ""3040CM"", YOUNGPRESENT = ""NO"", ANTLERSPRESENT = ""NO"", PRECIPITATIONRAINSNOW = ""NO"", WHATBEHAVIORSDOYOUSEE = list(""WALKINGRUNNING"")), filters = list()))",1,1,"DEERWHITETAILED",NA,1,"3040CM","NO","NO","NO",0,0,0,0,0,0,0,1,31429052,"Pine","DEG","29_19_DEG_0376.JPG","29_19_DEG_0377.JPG","29_19_DEG_0378.JPG",29,19,1,1
"21",21,153665368,31429104,"barthelmess",123.17,1,"T0",NA,"list(list(choice = ""DEERWHITETAILED"", answers = list(HOWMANY = ""1"", SNOWDEPTH = ""3040CM"", YOUNGPRESENT = ""NO"", ANTLERSPRESENT = ""NO"", PRECIPITATIONRAINSNOW = ""NO"", WHATBEHAVIORSDOYOUSEE = list(""WALKINGRUNNING"")), filters = list()))",1,1,"DEERWHITETAILED",NA,1,"3040CM","NO","NO","NO",0,0,0,0,0,0,0,1,31429104,"Pine","DEG","29_19_DEG_0532.JPG","29_19_DEG_0533.JPG","29_19_DEG_0534.JPG",29,19,1,1
"22",22,153665498,31428602,"barthelmess",123.17,1,"T0",NA,"list(list(choice = ""DEERWHITETAILED"", answers = list(HOWMANY = ""1"", YOUNGPRESENT = ""NO"", ANTLERSPRESENT = ""NO"", PRECIPITATIONRAINSNOW = ""NO"", WHATBEHAVIORSDOYOUSEE = list(""WALKINGRUNNING"")), filters = list()))",1,1,"DEERWHITETAILED",NA,1,NA,"NO","NO","NO",0,0,0,0,0,0,0,1,31428602,"Deciduous","BC","17_24_BC_000220.JPG","17_24_BC_000221.JPG","17_24_BC_000222.JPG",17,24,1,1
"23",23,153665604,31428863,"barthelmess",123.17,1,"T0",NA,"list(list(choice = ""DEERWHITETAILED"", answers = list(HOWMANY = ""1"", YOUNGPRESENT = ""NO"", PRECIPITATIONRAINSNOW = ""NO"", WHATBEHAVIORSDOYOUSEE = list(""WALKINGRUNNING"")), filters = list()))",1,1,"DEERWHITETAILED",NA,1,NA,"NO",NA,"NO",0,0,0,0,0,0,0,1,31428863,"Deciduous","SH","23_03_SH_0115.JPG","23_03_SH_0116.JPG","23_03_SH_0117.JPG",23,3,1,1
"24",24,153665806,31428936,"barthelmess",123.17,1,"T0",NA,"list(list(choice = ""FISHER"", answers = list(HOWMANY = ""1"", SNOWDEPTH = ""1020CM"", YOUNGPRESENT = ""NO"", PRECIPITATIONRAINSNOW = ""NO"", WHATBEHAVIORSDOYOUSEE = list(""WALKINGRUNNING"")), filters = list()))",1,1,"FISHER",NA,1,"1020CM","NO",NA,"NO",0,0,0,0,0,0,0,1,31428936,"Pine","DEG","29_19_DEG_0007.JPG","29_19_DEG_0008.JPG","29_19_DEG_0009.JPG",29,19,1,1
"25",25,153665867,31428545,"barthelmess",123.17,1,"T0",NA,"list(list(choice = ""NOTHINGHERE"", answers = list(), filters = list()))",1,1,"NOTHINGHERE",NA,NA,NA,NA,NA,NA,NA,NA,NA,NA,NA,NA,NA,NA,31428545,"Deciduous","BC","17_24_BC_000049.JPG","17_24_BC_000050.JPG","17_24_BC_000051.JPG",17,24,1,1
"26",26,153673833,31428403,"keandy16",123.17,1,"T0",NA,"list(list(choice = ""NOTHINGHERE"", answers = list(), filters = list()))",1,1,"NOTHINGHERE",NA,NA,NA,NA,NA,NA,NA,NA,NA,NA,NA,NA,NA,NA,31428403,"Deciduous","BC","11_13_BC_000268.JPG","11_13_BC_000269.JPG","11_13_BC_000270.JPG",11,13,1,1
"27",27,153674901,31428512,"keandy16",123.17,1,"T0",NA,"list(list(choice = ""DEERWHITETAILED"", answers = list(HOWMANY = ""1"", SNOWDEPTH = ""50CM"", YOUNGPRESENT = ""NO"", ANTLERSPRESENT = ""NO"", PRECIPITATIONRAINSNOW = ""NO"", WHATBEHAVIORSDOYOUSEE = list(""WALKINGRUNNING"")), filters = list()))",1,1,"DEERWHITETAILED",NA,1,"50CM","NO","NO","NO",0,0,0,0,0,0,0,1,31428512,"Pine","DEG","15_14_DEG_000193.JPG","15_14_DEG_000194.JPG","15_14_DEG_000195.JPG",15,14,1,1
"28",28,153676289,31428462,"keandy16",123.17,1,"T0",NA,"list(list(choice = ""DEERWHITETAILED"", answers = list(HOWMANY = ""1"", SNOWDEPTH = ""010CM"", YOUNGPRESENT = ""NO"", ANTLERSPRESENT = ""NO"", PRECIPITATIONRAINSNOW = ""NO"", WHATBEHAVIORSDOYOUSEE = list(""WALKINGRUNNING"")), filters = list()))",1,1,"DEERWHITETAILED",NA,1,"010CM","NO","NO","NO",0,0,0,0,0,0,0,1,31428462,"Pine","DEG","15_14_DEG_000037.JPG","15_14_DEG_000038.JPG","15_14_DEG_000039.JPG",15,14,1,1
"29",29,153688458,31428582,"keandy16",123.17,1,"T0",NA,"list(list(choice = ""SQUIRRELGRAY"", answers = list(HOWMANY = ""1"", SNOWDEPTH = ""010CM"", YOUNGPRESENT = ""NO"", PRECIPITATIONRAINSNOW = ""NO"", WHATBEHAVIORSDOYOUSEE = list(""FORAGINGEATING"", ""SITTINGSTANDINGLYING"")), filters = list()))",1,1,"SQUIRRELGRAY",NA,1,"010CM","NO",NA,"NO",0,0,0,1,0,0,1,0,31428582,"Deciduous","BC","17_24_BC_000160.JPG","17_24_BC_000161.JPG","17_24_BC_000162.JPG",17,24,1,1
"30",30,153688690,31428702,"keandy16",123.17,1,"T0",NA,"list(list(choice = ""NOTHINGHERE"", answers = list(), filters = list()))",1,1,"NOTHINGHERE",NA,NA,NA,NA,NA,NA,NA,NA,NA,NA,NA,NA,NA,NA,31428702,"Deciduous","DON","21_21_DON_0180.JPG","21_21_DON_0181.JPG","21_21_DON_0182.JPG",21,21,1,1
"31",31,153693411,31429160,"keandy16",123.17,1,"T0",NA,"list(list(choice = ""DEERWHITETAILED"", answers = list(HOWMANY = ""1"", SNOWDEPTH = ""2030CM"", YOUNGPRESENT = ""NO"", ANTLERSPRESENT = ""NO"", PRECIPITATIONRAINSNOW = ""NO"", WHATBEHAVIORSDOYOUSEE = list(""WALKINGRUNNING"")), filters = list()))",1,1,"DEERWHITETAILED",NA,1,"2030CM","NO","NO","NO",0,0,0,0,0,0,0,1,31429160,"Pine","WF","33_01_WF_0016.JPG","33_01_WF_0017.JPG","33_01_WF_0018.JPG",33,1,1,1
"32",32,153693813,31429136,"keandy16",123.17,1,"T0",NA,"list(list(choice = ""DEERWHITETAILED"", answers = list(HOWMANY = ""1"", SNOWDEPTH = ""010CM"", YOUNGPRESENT = ""NO"", ANTLERSPRESENT = ""NO"", PRECIPITATIONRAINSNOW = ""NO"", WHATBEHAVIORSDOYOUSEE = list(""SITTINGSTANDINGLYING"")), filters = list()))",1,1,"DEERWHITETAILED",NA,1,"010CM","NO","NO","NO",0,0,0,0,0,0,1,0,31429136,"Pine","WHIP","32_17_WHIP_0019.JPG","32_17_WHIP_0020.JPG","32_17_WHIP_0021.JPG",32,17,1,1
"33",33,153694029,31429077,"keandy16",123.17,1,"T0",NA,"list(list(choice = ""SOMETHINGHERE"", answers = list(), filters = list()))",1,1,"SOMETHINGHERE",NA,NA,NA,NA,NA,NA,NA,NA,NA,NA,NA,NA,NA,NA,31429077,"Pine","DEG","29_19_DEG_0451.JPG","29_19_DEG_0452.JPG","29_19_DEG_0453.JPG",29,19,1,1
"34",34,153696933,31428717,"keandy16",123.17,1,"T0",NA,"list(list(choice = ""DEERWHITETAILED"", answers = list(HOWMANY = ""1"", SNOWDEPTH = ""1020CM"", YOUNGPRESENT = ""NO"", ANTLERSPRESENT = ""NO"", PRECIPITATIONRAINSNOW = ""NO"", WHATBEHAVIORSDOYOUSEE = list(""WALKINGRUNNING"")), filters = list()))",1,1,"DEERWHITETAILED",NA,1,"1020CM","NO","NO","NO",0,0,0,0,0,0,0,1,31428717,"Pine","WF","22_18_WF_0046.JPG","22_18_WF_0047.JPG","22_18_WF_0048.JPG",22,18,1,1
"35",35,153697115,31429079,"keandy16",123.17,1,"T0",NA,"list(list(choice = ""DEERWHITETAILED"", answers = list(HOWMANY = ""1"", SNOWDEPTH = ""1020CM"", YOUNGPRESENT = ""NO"", ANTLERSPRESENT = ""NO"", PRECIPITATIONRAINSNOW = ""NO"", WHATBEHAVIORSDOYOUSEE = list(""SITTINGSTANDINGLYING"")), filters = list()))",1,1,"DEERWHITETAILED",NA,1,"1020CM","NO","NO","NO",0,0,0,0,0,0,1,0,31429079,"Pine","DEG","29_19_DEG_0457.JPG","29_19_DEG_0458.JPG","29_19_DEG_0459.JPG",29,19,1,1
"36",36,153697944,31429179,"keandy16",123.17,1,"T0",NA,"list(list(choice = ""DEERWHITETAILED"", answers = list(HOWMANY = ""2"", SNOWDEPTH = ""1020CM"", YOUNGPRESENT = ""NO"", ANTLERSPRESENT = ""NO"", PRECIPITATIONRAINSNOW = ""NO"", WHATBEHAVIORSDOYOUSEE = list(""SITTINGSTANDINGLYING"", ""FORAGINGEATING"")), filters = list()))",1,1,"DEERWHITETAILED",NA,2,"1020CM","NO","NO","NO",0,0,0,1,0,0,1,0,31429179,"Pine","WF","33_01_WF_0079.JPG","33_01_WF_0080.JPG","33_01_WF_0081.JPG",33,1,1,1
"37",37,153700220,31428852,"keandy16",123.17,1,"T0",NA,"list(list(choice = ""OTHERSMALLMAMMAL"", answers = list(HOWMANY = ""1"", SNOWDEPTH = ""010CM"", YOUNGPRESENT = ""NO"", PRECIPITATIONRAINSNOW = ""NO"", WHATBEHAVIORSDOYOUSEE = list(""WALKINGRUNNING"")), filters = list()))",1,1,"OTHERSMALLMAMMAL",NA,1,"010CM","NO",NA,"NO",0,0,0,0,0,0,0,1,31428852,"Deciduous","SH","23_03_SH_0082.JPG","23_03_SH_0083.JPG","23_03_SH_0084.JPG",23,3,1,1
"38",38,153700462,31428841,"keandy16",123.17,1,"T0",NA,"list(list(choice = ""DEERWHITETAILED"", answers = list(HOWMANY = ""1"", SNOWDEPTH = ""010CM"", YOUNGPRESENT = ""NO"", ANTLERSPRESENT = ""NO"", PRECIPITATIONRAINSNOW = ""NO"", WHATBEHAVIORSDOYOUSEE = list(""WALKINGRUNNING"")), filters = list()))",1,1,"DEERWHITETAILED",NA,1,"010CM","NO","NO","NO",0,0,0,0,0,0,0,1,31428841,"Deciduous","SH","23_03_SH_0049.JPG","23_03_SH_0050.JPG","23_03_SH_0051.JPG",23,3,1,1
"39",39,153700682,31428728,"keandy16",123.17,1,"T0",NA,"list(list(choice = ""DEERWHITETAILED"", answers = list(HOWMANY = ""1"", SNOWDEPTH = ""010CM"", YOUNGPRESENT = ""NO"", ANTLERSPRESENT = ""NO"", PRECIPITATIONRAINSNOW = ""NO"", WHATBEHAVIORSDOYOUSEE = list(""WALKINGRUNNING"")), filters = list()))",1,1,"DEERWHITETAILED",NA,1,"010CM","NO","NO","NO",0,0,0,0,0,0,0,1,31428728,"Pine","WF","22_18_WF_0079.JPG","22_18_WF_0080.JPG","22_18_WF_0081.JPG",22,18,1,1
"40",40,153725618,31429182,"micheleroberge",123.17,1,"T0",NA,"list(list(choice = ""DEERWHITETAILED"", answers = list(HOWMANY = ""1"", SNOWDEPTH = ""1020CM"", YOUNGPRESENT = ""NO"", ANTLERSPRESENT = ""NO"", PRECIPITATIONRAINSNOW = ""NO"", WHATBEHAVIORSDOYOUSEE = list(""WALKINGRUNNING"")), filters = list()))",1,1,"DEERWHITETAILED",NA,1,"1020CM","NO","NO","NO",0,0,0,0,0,0,0,1,31429182,"Pine","WF","33_01_WF_0088.JPG","33_01_WF_0089.JPG","33_01_WF_0090.JPG",33,1,1,1
"41",41,153727507,31428890,"keandy16",123.17,1,"T0",NA,"list(list(choice = ""DEERWHITETAILED"", answers = list(HOWMANY = ""1"", SNOWDEPTH = ""010CM"", YOUNGPRESENT = ""NO"", ANTLERSPRESENT = ""NO"", PRECIPITATIONRAINSNOW = ""NO"", WHATBEHAVIORSDOYOUSEE = list(""SITTINGSTANDINGLYING"")), filters = list()))",1,1,"DEERWHITETAILED",NA,1,"010CM","NO","NO","NO",0,0,0,0,0,0,1,0,31428890,"Deciduous","BC","24_04_BC_0076.JPG","24_04_BC_0077.JPG","24_04_BC_0078.JPG",24,4,1,1
"42",42,153728082,31428334,"micheleroberge",123.17,1,"T0",NA,"list(list(choice = ""NOTHINGHERE"", answers = list(), filters = list()))",1,1,"NOTHINGHERE",NA,NA,NA,NA,NA,NA,NA,NA,NA,NA,NA,NA,NA,NA,31428334,"Deciduous","BC","11_13_BC_000058.JPG","11_13_BC_000059.JPG","11_13_BC_000060.JPG",11,13,1,1
"43",43,153728448,31429210,"micheleroberge",123.17,1,"T0",NA,"list(list(choice = ""NOTHINGHERE"", answers = list(), filters = list()))",1,1,"NOTHINGHERE",NA,NA,NA,NA,NA,NA,NA,NA,NA,NA,NA,NA,NA,NA,31429210,"Pine","WF","33_01_WF_0178.JPG","33_01_WF_0179.JPG","33_01_WF_0180.JPG",33,1,1,1
"44",44,153728716,31429202,"micheleroberge",123.17,1,"T0",NA,"list(list(choice = ""DEERWHITETAILED"", answers = list(HOWMANY = ""1"", SNOWDEPTH = ""010CM"", YOUNGPRESENT = ""NO"", ANTLERSPRESENT = ""NO"", PRECIPITATIONRAINSNOW = ""NO"", WHATBEHAVIORSDOYOUSEE = list(""FORAGINGEATING"")), filters = list()))",1,1,"DEERWHITETAILED",NA,1,"010CM","NO","NO","NO",0,0,0,1,0,0,0,0,31429202,"Pine","WF","33_01_WF_0154.JPG","33_01_WF_0155.JPG","33_01_WF_0156.JPG",33,1,1,1
"45",45,153728958,31429003,"micheleroberge",123.17,1,"T0",NA,"list(list(choice = ""DEERWHITETAILED"", answers = list(HOWMANY = ""1"", SNOWDEPTH = ""010CM"", YOUNGPRESENT = ""NO"", ANTLERSPRESENT = ""NO"", PRECIPITATIONRAINSNOW = ""NO"", WHATBEHAVIORSDOYOUSEE = list(""SITTINGSTANDINGLYING"")), filters = list()))",1,1,"DEERWHITETAILED",NA,1,"010CM","NO","NO","NO",0,0,0,0,0,0,1,0,31429003,"Pine","DEG","29_19_DEG_0229.JPG","29_19_DEG_0230.JPG","29_19_DEG_0231.JPG",29,19,1,1
"46",46,153729255,31428441,"micheleroberge",123.17,1,"T0",NA,"list(list(choice = ""DEERWHITETAILED"", answers = list(HOWMANY = ""1"", SNOWDEPTH = ""1020CM"", YOUNGPRESENT = ""NO"", ANTLERSPRESENT = ""NO"", PRECIPITATIONRAINSNOW = ""NO"", WHATBEHAVIORSDOYOUSEE = list(""WALKINGRUNNING"")), filters = list()))",1,1,"DEERWHITETAILED",NA,1,"1020CM","NO","NO","NO",0,0,0,0,0,0,0,1,31428441,"Deciduous","DON","14_22_DON_000097.JPG","14_22_DON_000098.JPG","14_22_DON_000099.JPG",14,22,1,1
"47",47,153729361,31428391,"micheleroberge",123.17,1,"T0",NA,"list(list(choice = ""NOTHINGHERE"", answers = list(), filters = list()))",1,1,"NOTHINGHERE",NA,NA,NA,NA,NA,NA,NA,NA,NA,NA,NA,NA,NA,NA,31428391,"Deciduous","BC","11_13_BC_000232.JPG","11_13_BC_000233.JPG","11_13_BC_000234.JPG",11,13,1,1
"48",48,153729514,31428854,"micheleroberge",123.17,1,"T0",NA,"list(list(choice = ""DEERWHITETAILED"", answers = list(HOWMANY = ""1"", SNOWDEPTH = ""1020CM"", YOUNGPRESENT = ""NO"", ANTLERSPRESENT = ""NO"", PRECIPITATIONRAINSNOW = ""NO"", WHATBEHAVIORSDOYOUSEE = list(""WALKINGRUNNING"")), filters = list()))",1,1,"DEERWHITETAILED",NA,1,"1020CM","NO","NO","NO",0,0,0,0,0,0,0,1,31428854,"Deciduous","SH","23_03_SH_0088.JPG","23_03_SH_0089.JPG","23_03_SH_0090.JPG",23,3,1,1
"49",49,153838529,31428988,"barthelmess",123.17,1,"T0",NA,"list(list(choice = ""SOMETHINGHERE"", answers = list(), filters = list()))",1,1,"SOMETHINGHERE",NA,NA,NA,NA,NA,NA,NA,NA,NA,NA,NA,NA,NA,NA,31428988,"Pine","DEG","29_19_DEG_0184.JPG","29_19_DEG_0185.JPG","29_19_DEG_0186.JPG",29,19,1,1
"50",50,153838607,31429212,"barthelmess",123.17,1,"T0",NA,"list(list(choice = ""SOMETHINGHERE"", answers = list(), filters = list()))",1,1,"SOMETHINGHERE",NA,NA,NA,NA,NA,NA,NA,NA,NA,NA,NA,NA,NA,NA,31429212,"Pine","WF","33_01_WF_0184.JPG","33_01_WF_0185.JPG","33_01_WF_0186.JPG",33,1,1,1
"51",51,153838825,31428745,"barthelmess",123.17,1,"T0",NA,"list(list(choice = ""DEERWHITETAILED"", answers = list(HOWMANY = ""1"", SNOWDEPTH = ""010CM"", YOUNGPRESENT = ""NO"", ANTLERSPRESENT = ""NO"", PRECIPITATIONRAINSNOW = ""NO"", WHATBEHAVIORSDOYOUSEE = list(""WALKINGRUNNING"")), filters = list()))",1,1,"DEERWHITETAILED",NA,1,"010CM","NO","NO","NO",0,0,0,0,0,0,0,1,31428745,"Pine","WF","22_18_WF_0130.JPG","22_18_WF_0131.JPG","22_18_WF_0132.JPG",22,18,1,1
"52",52,153839348,31428652,"barthelmess",123.17,1,"T0",NA,"list(list(choice = ""FOXRED"", answers = list(HOWMANY = ""1"", SNOWDEPTH = ""3040CM"", YOUNGPRESENT = ""NO"", PRECIPITATIONRAINSNOW = ""NO"", WHATBEHAVIORSDOYOUSEE = list(""WALKINGRUNNING"")), filters = list()))",1,1,"FOXRED",NA,1,"3040CM","NO",NA,"NO",0,0,0,0,0,0,0,1,31428652,"Deciduous","DON","21_21_DON_0030.JPG","21_21_DON_0031.JPG","21_21_DON_0032.JPG",21,21,1,1
"53",53,153839540,31428411,"barthelmess",123.17,1,"T0",NA,"list(list(choice = ""NOTHINGHERE"", answers = list(), filters = list()))",1,1,"NOTHINGHERE",NA,NA,NA,NA,NA,NA,NA,NA,NA,NA,NA,NA,NA,NA,31428411,"Deciduous","DON","14_22_DON_000007.JPG","14_22_DON_000008.JPG","14_22_DON_000009.JPG",14,22,1,1
"54",54,153839624,31428790,"barthelmess",123.17,1,"T0",NA,"list(list(choice = ""NOTHINGHERE"", answers = list(), filters = list()))",1,1,"NOTHINGHERE",NA,NA,NA,NA,NA,NA,NA,NA,NA,NA,NA,NA,NA,NA,31428790,"Pine","WF","22_18_WF_0268.JPG","22_18_WF_0269.JPG","22_18_WF_0270.JPG",22,18,1,1
"55",55,153839693,31428378,"barthelmess",123.17,1,"T0",NA,"list(list(choice = ""NOTHINGHERE"", answers = list(), filters = list()))",1,1,"NOTHINGHERE",NA,NA,NA,NA,NA,NA,NA,NA,NA,NA,NA,NA,NA,NA,31428378,"Deciduous","BC","11_13_BC_000193.JPG","11_13_BC_000194.JPG","11_13_BC_000195.JPG",11,13,1,1
"56",56,153839801,31428601,"barthelmess",123.17,1,"T0",NA,"list(list(choice = ""DEERWHITETAILED"", answers = list(HOWMANY = ""1"", YOUNGPRESENT = ""NO"", ANTLERSPRESENT = ""NO"", PRECIPITATIONRAINSNOW = ""NO"", WHATBEHAVIORSDOYOUSEE = list(""WALKINGRUNNING"", ""FORAGINGEATING"")), filters = list()))",1,1,"DEERWHITETAILED",NA,1,NA,"NO","NO","NO",0,0,0,1,0,0,0,1,31428601,"Deciduous","BC","17_24_BC_000217.JPG","17_24_BC_000218.JPG","17_24_BC_000219.JPG",17,24,1,1
"57",57,153839932,31428461,"barthelmess",123.17,1,"T0",NA,"list(list(choice = ""DEERWHITETAILED"", answers = list(HOWMANY = ""1"", SNOWDEPTH = ""010CM"", YOUNGPRESENT = ""NO"", PRECIPITATIONRAINSNOW = ""NO"", WHATBEHAVIORSDOYOUSEE = list(""WALKINGRUNNING"")), filters = list()))",1,1,"DEERWHITETAILED",NA,1,"010CM","NO",NA,"NO",0,0,0,0,0,0,0,1,31428461,"Pine","DEG","15_14_DEG_000034.JPG","15_14_DEG_000035.JPG","15_14_DEG_000036.JPG",15,14,1,1
"58",58,153840015,31428382,"barthelmess",123.17,1,"T0",NA,"list(list(choice = ""SOMETHINGHERE"", answers = list(), filters = list()))",1,1,"SOMETHINGHERE",NA,NA,NA,NA,NA,NA,NA,NA,NA,NA,NA,NA,NA,NA,31428382,"Deciduous","BC","11_13_BC_000205.JPG","11_13_BC_000206.JPG","11_13_BC_000207.JPG",11,13,1,1
"59",59,153840115,31428760,"barthelmess",123.17,1,"T0",NA,"list(list(choice = ""DEERWHITETAILED"", answers = list(HOWMANY = ""1"", SNOWDEPTH = ""2030CM"", YOUNGPRESENT = ""NO"", ANTLERSPRESENT = ""NO"", PRECIPITATIONRAINSNOW = ""NO"", WHATBEHAVIORSDOYOUSEE = list(""SITTINGSTANDINGLYING"", ""FORAGINGEATING"")), filters = list()))",1,1,"DEERWHITETAILED",NA,1,"2030CM","NO","NO","NO",0,0,0,1,0,0,1,0,31428760,"Pine","WF","22_18_WF_0178.JPG","22_18_WF_0179.JPG","22_18_WF_0180.JPG",22,18,1,1
"60",60,153840463,31428535,"NatureUpNorth",123.17,1,"T0",NA,"list(list(choice = ""DEERWHITETAILED"", answers = list(HOWMANY = ""1"", YOUNGPRESENT = ""NO"", PRECIPITATIONRAINSNOW = ""YES"", WHATBEHAVIORSDOYOUSEE = list(""WALKINGRUNNING"")), filters = list()))",1,1,"DEERWHITETAILED",NA,1,NA,"NO",NA,"YES",0,0,0,0,0,0,0,1,31428535,"Deciduous","BC","17_24_BC_000019.JPG","17_24_BC_000020.JPG","17_24_BC_000021.JPG",17,24,1,1
"61",61,153840699,31428917,"NatureUpNorth",123.17,1,"T0",NA,"list(list(choice = ""FOXRED"", answers = list(HOWMANY = ""1"", SNOWDEPTH = ""010CM"", YOUNGPRESENT = ""NO"", WHATBEHAVIORSDOYOUSEE = list(""WALKINGRUNNING"")), filters = list()))",1,1,"FOXRED",NA,1,"010CM","NO",NA,NA,0,0,0,0,0,0,0,1,31428917,"Deciduous","SH","25_09_SH_0069.JPG","25_09_SH_0070.JPG","25_09_SH_0071.JPG",25,9,1,1
"62",62,153840848,31428971,"NatureUpNorth",123.17,1,"T0",NA,"list(list(choice = ""DEERWHITETAILED"", answers = list(HOWMANY = ""1"", SNOWDEPTH = ""010CM"", YOUNGPRESENT = ""NO"", PRECIPITATIONRAINSNOW = ""NO"", WHATBEHAVIORSDOYOUSEE = list(""SITTINGSTANDINGLYING"")), filters = list()))",1,1,"DEERWHITETAILED",NA,1,"010CM","NO",NA,"NO",0,0,0,0,0,0,1,0,31428971,"Pine","DEG","29_19_DEG_0127.JPG","29_19_DEG_0128.JPG","29_19_DEG_0129.JPG",29,19,1,1
"63",63,153840930,31428443,"NatureUpNorth",123.17,1,"T0",NA,"list(list(choice = ""NOTHINGHERE"", answers = list(), filters = list()))",1,1,"NOTHINGHERE",NA,NA,NA,NA,NA,NA,NA,NA,NA,NA,NA,NA,NA,NA,31428443,"Deciduous","DON","14_22_DON_000103.JPG","14_22_DON_000104.JPG","14_22_DON_000105.JPG",14,22,1,1
"64",64,153841027,31429075,"NatureUpNorth",123.17,1,"T0",NA,"list(list(choice = ""SOMETHINGHERE"", answers = list(), filters = list()))",1,1,"SOMETHINGHERE",NA,NA,NA,NA,NA,NA,NA,NA,NA,NA,NA,NA,NA,NA,31429075,"Pine","DEG","29_19_DEG_0445.JPG","29_19_DEG_0446.JPG","29_19_DEG_0447.JPG",29,19,1,1
"65",65,153841161,31428920,"NatureUpNorth",123.17,1,"T0",NA,"list(list(choice = ""SQUIRRELGRAY"", answers = list(HOWMANY = ""1"", SNOWDEPTH = ""010CM"", YOUNGPRESENT = ""NO"", PRECIPITATIONRAINSNOW = ""NO"", WHATBEHAVIORSDOYOUSEE = list(""WALKINGRUNNING"")), filters = list()))",1,1,"SQUIRRELGRAY",NA,1,"010CM","NO",NA,"NO",0,0,0,0,0,0,0,1,31428920,"Deciduous","SH","25_09_SH_0078.JPG","25_09_SH_0079.JPG","25_09_SH_0080.JPG",25,9,1,1
"66",66,153841347,31428478,"NatureUpNorth",123.17,1,"T0",NA,"list(list(choice = ""DEERWHITETAILED"", answers = list(HOWMANY = ""2"", SNOWDEPTH = ""010CM"", YOUNGPRESENT = ""YES"", ANTLERSPRESENT = ""NO"", PRECIPITATIONRAINSNOW = ""NO"", WHATBEHAVIORSDOYOUSEE = list(""WALKINGRUNNING"")), filters = list()))",1,1,"DEERWHITETAILED",NA,2,"010CM","YES","NO","NO",0,0,0,0,0,0,0,1,31428478,"Pine","DEG","15_14_DEG_000085.JPG","15_14_DEG_000086.JPG","15_14_DEG_000087.JPG",15,14,1,1
"67",67,153924669,31428417,"micheleroberge",123.17,1,"T0",NA,"list(list(choice = ""DEERWHITETAILED"", answers = list(HOWMANY = ""1"", SNOWDEPTH = ""1020CM"", YOUNGPRESENT = ""NO"", ANTLERSPRESENT = ""NO"", PRECIPITATIONRAINSNOW = ""NO"", WHATBEHAVIORSDOYOUSEE = list(""SITTINGSTANDINGLYING"")), filters = list()))",1,1,"DEERWHITETAILED",NA,1,"1020CM","NO","NO","NO",0,0,0,0,0,0,1,0,31428417,"Deciduous","DON","14_22_DON_000025.JPG","14_22_DON_000026.JPG","14_22_DON_000027.JPG",14,22,1,1
"68",69,153925776,31428938,"micheleroberge",123.17,1,"T0",NA,"list(list(choice = ""SOMETHINGHERE"", answers = list(), filters = list()))",1,1,"SOMETHINGHERE",NA,NA,NA,NA,NA,NA,NA,NA,NA,NA,NA,NA,NA,NA,31428938,"Pine","DEG","29_19_DEG_0013.JPG","29_19_DEG_0014.JPG","29_19_DEG_0015.JPG",29,19,1,1
"69",70,153926201,31428999,"micheleroberge",123.17,1,"T0",NA,"list(list(choice = ""PORCUPINE"", answers = list(HOWMANY = ""1"", SNOWDEPTH = ""010CM"", YOUNGPRESENT = ""NO"", PRECIPITATIONRAINSNOW = ""NO"", WHATBEHAVIORSDOYOUSEE = list(""WALKINGRUNNING"")), filters = list()))",1,1,"PORCUPINE",NA,1,"010CM","NO",NA,"NO",0,0,0,0,0,0,0,1,31428999,"Pine","DEG","29_19_DEG_0217.JPG","29_19_DEG_0218.JPG","29_19_DEG_0219.JPG",29,19,1,1
"70",71,153926555,31429082,"micheleroberge",123.17,1,"T0",NA,"list(list(choice = ""DEERWHITETAILED"", answers = list(HOWMANY = ""1"", SNOWDEPTH = ""2030CM"", YOUNGPRESENT = ""NO"", ANTLERSPRESENT = ""NO"", PRECIPITATIONRAINSNOW = ""NO"", WHATBEHAVIORSDOYOUSEE = list(""WALKINGRUNNING"")), filters = list()))",1,1,"DEERWHITETAILED",NA,1,"2030CM","NO","NO","NO",0,0,0,0,0,0,0,1,31429082,"Pine","DEG","29_19_DEG_0466.JPG","29_19_DEG_0467.JPG","29_19_DEG_0468.JPG",29,19,1,1
"71",72,153926760,31429034,"micheleroberge",123.17,1,"T0",NA,"list(list(choice = ""DEERWHITETAILED"", answers = list(HOWMANY = ""1"", SNOWDEPTH = ""2030CM"", YOUNGPRESENT = ""NO"", ANTLERSPRESENT = ""NO"", PRECIPITATIONRAINSNOW = ""NO"", WHATBEHAVIORSDOYOUSEE = list(""WALKINGRUNNING"")), filters = list()))",1,1,"DEERWHITETAILED",NA,1,"2030CM","NO","NO","NO",0,0,0,0,0,0,0,1,31429034,"Pine","DEG","29_19_DEG_0322.JPG","29_19_DEG_0323.JPG","29_19_DEG_0324.JPG",29,19,1,1
"72",73,153926916,31428695,"micheleroberge",123.17,1,"T0",NA,"list(list(choice = ""NOTHINGHERE"", answers = list(), filters = list()))",1,1,"NOTHINGHERE",NA,NA,NA,NA,NA,NA,NA,NA,NA,NA,NA,NA,NA,NA,31428695,"Deciduous","DON","21_21_DON_0159.JPG","21_21_DON_0160.JPG","21_21_DON_0161.JPG",21,21,1,1
"73",74,153927348,31428396,"micheleroberge",123.17,1,"T0",NA,"list(list(choice = ""NOTHINGHERE"", answers = list(), filters = list()))",1,1,"NOTHINGHERE",NA,NA,NA,NA,NA,NA,NA,NA,NA,NA,NA,NA,NA,NA,31428396,"Deciduous","BC","11_13_BC_000247.JPG","11_13_BC_000248.JPG","11_13_BC_000249.JPG",11,13,1,1
"74",75,153927518,31428820,"micheleroberge",123.17,1,"T0",NA,"list(list(choice = ""DEERWHITETAILED"", answers = list(HOWMANY = ""1"", SNOWDEPTH = ""2030CM"", YOUNGPRESENT = ""NO"", ANTLERSPRESENT = ""NO"", PRECIPITATIONRAINSNOW = ""NO"", WHATBEHAVIORSDOYOUSEE = list(""WALKINGRUNNING"")), filters = list()))",1,1,"DEERWHITETAILED",NA,1,"2030CM","NO","NO","NO",0,0,0,0,0,0,0,1,31428820,"Pine","WF","22_18_WF_0361.JPG","22_18_WF_0362.JPG","22_18_WF_0363.JPG",22,18,1,1
"75",76,153927615,31428337,"micheleroberge",123.17,1,"T0",NA,"list(list(choice = ""SQUIRRELGRAY"", answers = list(HOWMANY = ""1"", SNOWDEPTH = ""1020CM"", YOUNGPRESENT = ""NO"", PRECIPITATIONRAINSNOW = ""NO"", WHATBEHAVIORSDOYOUSEE = list(""WALKINGRUNNING"")), filters = list()))",1,1,"SQUIRRELGRAY",NA,1,"1020CM","NO",NA,"NO",0,0,0,0,0,0,0,1,31428337,"Deciduous","BC","11_13_BC_000067.JPG","11_13_BC_000068.JPG","11_13_BC_000069.JPG",11,13,1,1
"76",77,153959449,31428480,"not-logged-in-b86bd8494fea4a05114e",123.17,1,"T0",NA,"list(list(choice = ""DEERWHITETAILED"", answers = list(), filters = list()))",1,1,"DEERWHITETAILED",NA,NA,NA,NA,NA,NA,NA,NA,NA,NA,NA,NA,NA,NA,31428480,"Pine","DEG","15_14_DEG_000091.JPG","15_14_DEG_000092.JPG","15_14_DEG_000093.JPG",15,14,1,1
"77",78,153959490,31429047,"not-logged-in-b86bd8494fea4a05114e",123.17,1,"T0",NA,"list(list(choice = ""DEERWHITETAILED"", answers = list(), filters = list()))",1,1,"DEERWHITETAILED",NA,NA,NA,NA,NA,NA,NA,NA,NA,NA,NA,NA,NA,NA,31429047,"Pine","DEG","29_19_DEG_0361.JPG","29_19_DEG_0362.JPG","29_19_DEG_0363.JPG",29,19,1,1
"78",79,153959535,31428670,"not-logged-in-b86bd8494fea4a05114e",123.17,1,"T0",NA,"list(list(choice = ""NOTHINGHERE"", answers = list(), filters = list()))",1,1,"NOTHINGHERE",NA,NA,NA,NA,NA,NA,NA,NA,NA,NA,NA,NA,NA,NA,31428670,"Deciduous","DON","21_21_DON_0084.JPG","21_21_DON_0085.JPG","21_21_DON_0086.JPG",21,21,1,1
"79",81,153959658,31428502,"not-logged-in-b86bd8494fea4a05114e",123.17,1,"T0",NA,"list(list(choice = ""DEERWHITETAILED"", answers = list(HOWMANY = ""1"", SNOWDEPTH = ""2030CM"", YOUNGPRESENT = ""NO"", ANTLERSPRESENT = ""NO"", PRECIPITATIONRAINSNOW = ""NO"", WHATBEHAVIORSDOYOUSEE = list(""WALKINGRUNNING"")), filters = list()))",1,1,"DEERWHITETAILED",NA,1,"2030CM","NO","NO","NO",0,0,0,0,0,0,0,1,31428502,"Pine","DEG","15_14_DEG_000163.JPG","15_14_DEG_000164.JPG","15_14_DEG_000165.JPG",15,14,1,1
"80",82,153959707,31428720,"not-logged-in-b86bd8494fea4a05114e",123.17,1,"T0",NA,"list(list(choice = ""DEERWHITETAILED"", answers = list(HOWMANY = ""1"", SNOWDEPTH = ""1020CM"", YOUNGPRESENT = ""NO"", ANTLERSPRESENT = ""NO"", PRECIPITATIONRAINSNOW = ""NO"", WHATBEHAVIORSDOYOUSEE = list(""WALKINGRUNNING"")), filters = list()))",1,1,"DEERWHITETAILED",NA,1,"1020CM","NO","NO","NO",0,0,0,0,0,0,0,1,31428720,"Pine","WF","22_18_WF_0055.JPG","22_18_WF_0056.JPG","22_18_WF_0057.JPG",22,18,1,1
"81",83,154097068,31429121,"barthelmess",123.17,1,"T0",NA,"list(list(choice = ""NOTHINGHERE"", answers = list(), filters = list()))",1,1,"NOTHINGHERE",NA,NA,NA,NA,NA,NA,NA,NA,NA,NA,NA,NA,NA,NA,31429121,"Pine","WHIP","31_06_WHIP_0049.JPG","31_06_WHIP_0050.JPG","31_06_WHIP_0051.JPG",31,6,1,1
"82",84,154097179,31428561,"barthelmess",123.17,1,"T0",NA,"list(list(choice = ""SQUIRRELGRAY"", answers = list(HOWMANY = ""1"", SNOWDEPTH = ""010CM"", YOUNGPRESENT = ""NO"", PRECIPITATIONRAINSNOW = ""NO"", WHATBEHAVIORSDOYOUSEE = list(""WALKINGRUNNING"")), filters = list()))",1,1,"SQUIRRELGRAY",NA,1,"010CM","NO",NA,"NO",0,0,0,0,0,0,0,1,31428561,"Deciduous","BC","17_24_BC_000097.JPG","17_24_BC_000098.JPG","17_24_BC_000099.JPG",17,24,1,1
"83",85,154142952,31429007,"not-logged-in-1779b5d2f9de312cc559",123.17,1,"T0",NA,"list(list(choice = ""DEERWHITETAILED"", answers = list(HOWMANY = ""1"", SNOWDEPTH = ""010CM"", YOUNGPRESENT = ""NO"", ANTLERSPRESENT = ""NO"", PRECIPITATIONRAINSNOW = ""NO"", WHATBEHAVIORSDOYOUSEE = list(""FORAGINGEATING"")), filters = list()))",1,1,"DEERWHITETAILED",NA,1,"010CM","NO","NO","NO",0,0,0,1,0,0,0,0,31429007,"Pine","DEG","29_19_DEG_0241.JPG","29_19_DEG_0242.JPG","29_19_DEG_0243.JPG",29,19,1,1
"84",86,154143499,31428699,"not-logged-in-1779b5d2f9de312cc559",123.17,1,"T0",NA,"list(list(choice = ""NOTHINGHERE"", answers = list(), filters = list()))",1,1,"NOTHINGHERE",NA,NA,NA,NA,NA,NA,NA,NA,NA,NA,NA,NA,NA,NA,31428699,"Deciduous","DON","21_21_DON_0171.JPG","21_21_DON_0172.JPG","21_21_DON_0173.JPG",21,21,1,1
"85",87,154310058,31428884,"keandy16",123.17,1,"T0",NA,"list(list(choice = ""DEERWHITETAILED"", answers = list(HOWMANY = ""1"", SNOWDEPTH = ""010CM"", YOUNGPRESENT = ""NO"", ANTLERSPRESENT = ""NO"", PRECIPITATIONRAINSNOW = ""NO"", WHATBEHAVIORSDOYOUSEE = list(""WALKINGRUNNING"")), filters = list()))",1,1,"DEERWHITETAILED",NA,1,"010CM","NO","NO","NO",0,0,0,0,0,0,0,1,31428884,"Deciduous","BC","24_04_BC_0058.JPG","24_04_BC_0059.JPG","24_04_BC_0060.JPG",24,4,1,1
"86",88,154310488,31429189,"keandy16",123.17,1,"T0",NA,"list(list(choice = ""SOMETHINGHERE"", answers = list(), filters = list()))",1,1,"SOMETHINGHERE",NA,NA,NA,NA,NA,NA,NA,NA,NA,NA,NA,NA,NA,NA,31429189,"Pine","WF","33_01_WF_0109.JPG","33_01_WF_0110.JPG","33_01_WF_0111.JPG",33,1,1,1
"87",89,154310603,31428388,"keandy16",123.17,1,"T0",NA,"list(list(choice = ""SQUIRRELGRAY"", answers = list(HOWMANY = ""1"", SNOWDEPTH = ""1020CM"", YOUNGPRESENT = ""NO"", PRECIPITATIONRAINSNOW = ""NO"", WHATBEHAVIORSDOYOUSEE = list(""WALKINGRUNNING"")), filters = list()))",1,1,"SQUIRRELGRAY",NA,1,"1020CM","NO",NA,"NO",0,0,0,0,0,0,0,1,31428388,"Deciduous","BC","11_13_BC_000223.JPG","11_13_BC_000224.JPG","11_13_BC_000225.JPG",11,13,1,1
"88",90,154310754,31429014,"keandy16",123.17,1,"T0",NA,"list(list(choice = ""DEERWHITETAILED"", answers = list(HOWMANY = ""1"", SNOWDEPTH = ""1020CM"", YOUNGPRESENT = ""NO"", ANTLERSPRESENT = ""NO"", PRECIPITATIONRAINSNOW = ""NO"", WHATBEHAVIORSDOYOUSEE = list(""WALKINGRUNNING"")), filters = list()))",1,1,"DEERWHITETAILED",NA,1,"1020CM","NO","NO","NO",0,0,0,0,0,0,0,1,31429014,"Pine","DEG","29_19_DEG_0262.JPG","29_19_DEG_0263.JPG","29_19_DEG_0264.JPG",29,19,1,1
"89",91,154310842,31428440,"keandy16",123.17,1,"T0",NA,"list(list(choice = ""DEERWHITETAILED"", answers = list(HOWMANY = ""1"", SNOWDEPTH = ""2030CM"", YOUNGPRESENT = ""NO"", ANTLERSPRESENT = ""NO"", PRECIPITATIONRAINSNOW = ""NO"", WHATBEHAVIORSDOYOUSEE = list(""WALKINGRUNNING"")), filters = list()))",1,1,"DEERWHITETAILED",NA,1,"2030CM","NO","NO","NO",0,0,0,0,0,0,0,1,31428440,"Deciduous","DON","14_22_DON_000094.JPG","14_22_DON_000095.JPG","14_22_DON_000096.JPG",14,22,1,1
"90",92,154311095,31429001,"keandy16",123.17,1,"T0",NA,"list(list(choice = ""DEERWHITETAILED"", answers = list(HOWMANY = ""1"", SNOWDEPTH = ""010CM"", YOUNGPRESENT = ""NO"", ANTLERSPRESENT = ""NO"", PRECIPITATIONRAINSNOW = ""NO"", WHATBEHAVIORSDOYOUSEE = list(""WALKINGRUNNING"")), filters = list()))",1,1,"DEERWHITETAILED",NA,1,"010CM","NO","NO","NO",0,0,0,0,0,0,0,1,31429001,"Pine","DEG","29_19_DEG_0223.JPG","29_19_DEG_0224.JPG","29_19_DEG_0225.JPG",29,19,1,1
"91",93,154311196,31429013,"keandy16",123.17,1,"T0",NA,"list(list(choice = ""DEERWHITETAILED"", answers = list(HOWMANY = ""1"", SNOWDEPTH = ""1020CM"", YOUNGPRESENT = ""NO"", ANTLERSPRESENT = ""NO"", PRECIPITATIONRAINSNOW = ""NO"", WHATBEHAVIORSDOYOUSEE = list(""WALKINGRUNNING"")), filters = list()))",1,1,"DEERWHITETAILED",NA,1,"1020CM","NO","NO","NO",0,0,0,0,0,0,0,1,31429013,"Pine","DEG","29_19_DEG_0259.JPG","29_19_DEG_0260.JPG","29_19_DEG_0261.JPG",29,19,1,1
"92",94,154311373,31428473,"keandy16",123.17,1,"T0",NA,"list(list(choice = ""NOTHINGHERE"", answers = list(), filters = list()))",1,1,"NOTHINGHERE",NA,NA,NA,NA,NA,NA,NA,NA,NA,NA,NA,NA,NA,NA,31428473,"Pine","DEG","15_14_DEG_000070.JPG","15_14_DEG_000071.JPG","15_14_DEG_000072.JPG",15,14,1,1
"93",95,154311692,31428830,"keandy16",123.17,1,"T0",NA,"list(list(choice = ""DEERWHITETAILED"", answers = list(HOWMANY = ""1"", SNOWDEPTH = ""2030CM"", YOUNGPRESENT = ""NO"", ANTLERSPRESENT = ""YES"", PRECIPITATIONRAINSNOW = ""NO"", WHATBEHAVIORSDOYOUSEE = list(""WALKINGRUNNING"")), filters = list()))",1,1,"DEERWHITETAILED",NA,1,"2030CM","NO","YES","NO",0,0,0,0,0,0,0,1,31428830,"Deciduous","SH","23_03_SH_0016.JPG","23_03_SH_0017.JPG","23_03_SH_0018.JPG",23,3,1,1
"94",96,154311914,31428438,"keandy16",123.17,1,"T0",NA,"list(list(choice = ""DEERWHITETAILED"", answers = list(HOWMANY = ""1"", SNOWDEPTH = ""3040CM"", ANTLERSPRESENT = ""NO"", PRECIPITATIONRAINSNOW = ""NO"", WHATBEHAVIORSDOYOUSEE = list(""WALKINGRUNNING"")), filters = list()))",1,1,"DEERWHITETAILED",NA,1,"3040CM",NA,"NO","NO",0,0,0,0,0,0,0,1,31428438,"Deciduous","DON","14_22_DON_000088.JPG","14_22_DON_000089.JPG","14_22_DON_000090.JPG",14,22,1,1
"95",97,154312248,31428428,"keandy16",123.17,1,"T0",NA,"list(list(choice = ""DEERWHITETAILED"", answers = list(HOWMANY = ""2"", SNOWDEPTH = ""1020CM"", YOUNGPRESENT = ""YES"", ANTLERSPRESENT = ""NO"", PRECIPITATIONRAINSNOW = ""NO"", WHATBEHAVIORSDOYOUSEE = list(""WALKINGRUNNING"")), filters = list()))",1,1,"DEERWHITETAILED",NA,2,"1020CM","YES","NO","NO",0,0,0,0,0,0,0,1,31428428,"Deciduous","DON","14_22_DON_000058.JPG","14_22_DON_000059.JPG","14_22_DON_000060.JPG",14,22,1,1
"96",98,154312728,31428935,"keandy16",123.17,1,"T0",NA,"list(list(choice = ""DEERWHITETAILED"", answers = list(HOWMANY = ""1"", SNOWDEPTH = ""1020CM"", YOUNGPRESENT = ""NO"", ANTLERSPRESENT = ""NO"", PRECIPITATIONRAINSNOW = ""NO"", WHATBEHAVIORSDOYOUSEE = list(""WALKINGRUNNING"", ""FORAGINGEATING"")), filters = list()))",1,1,"DEERWHITETAILED",NA,1,"1020CM","NO","NO","NO",0,0,0,1,0,0,0,1,31428935,"Pine","DEG","29_19_DEG_0004.JPG","29_19_DEG_0005.JPG","29_19_DEG_0006.JPG",29,19,1,1
"97",100,154313745,31429037,"keandy16",123.17,1,"T0",NA,"list(list(choice = ""DEERWHITETAILED"", answers = list(HOWMANY = ""1"", SNOWDEPTH = ""2030CM"", YOUNGPRESENT = ""NO"", ANTLERSPRESENT = ""NO"", PRECIPITATIONRAINSNOW = ""NO"", WHATBEHAVIORSDOYOUSEE = list(""SITTINGSTANDINGLYING"")), filters = list()))",1,1,"DEERWHITETAILED",NA,1,"2030CM","NO","NO","NO",0,0,0,0,0,0,1,0,31429037,"Pine","DEG","29_19_DEG_0331.JPG","29_19_DEG_0332.JPG","29_19_DEG_0333.JPG",29,19,1,1
"98",101,154313845,31428958,"keandy16",123.17,1,"T0",NA,"list(list(choice = ""DEERWHITETAILED"", answers = list(HOWMANY = ""1"", SNOWDEPTH = ""010CM"", YOUNGPRESENT = ""NO"", ANTLERSPRESENT = ""NO"", PRECIPITATIONRAINSNOW = ""NO"", WHATBEHAVIORSDOYOUSEE = list(""WALKINGRUNNING"")), filters = list()))",1,1,"DEERWHITETAILED",NA,1,"010CM","NO","NO","NO",0,0,0,0,0,0,0,1,31428958,"Pine","DEG","29_19_DEG_0079.JPG","29_19_DEG_0080.JPG","29_19_DEG_0081.JPG",29,19,1,1
"99",102,154313899,31428544,"keandy16",123.17,1,"T0",NA,"list(list(choice = ""DEERWHITETAILED"", answers = list(HOWMANY = ""1"", SNOWDEPTH = ""1020CM"", YOUNGPRESENT = ""NO"", ANTLERSPRESENT = ""NO"", PRECIPITATIONRAINSNOW = ""NO"", WHATBEHAVIORSDOYOUSEE = list(""WALKINGRUNNING"")), filters = list()))",1,1,"DEERWHITETAILED",NA,1,"1020CM","NO","NO","NO",0,0,0,0,0,0,0,1,31428544,"Deciduous","BC","17_24_BC_000046.JPG","17_24_BC_000047.JPG","17_24_BC_000048.JPG",17,24,1,1
"100",103,154687083,31428344,"MWillis875",123.17,1,"T0",NA,"list(list(choice = ""SQUIRRELGRAY"", answers = list(HOWMANY = ""1"", SNOWDEPTH = ""1020CM"", YOUNGPRESENT = ""NO"", PRECIPITATIONRAINSNOW = ""YES"", WHATBEHAVIORSDOYOUSEE = list(""SITTINGSTANDINGLYING"")), filters = list()))",1,1,"SQUIRRELGRAY",NA,1,"1020CM","NO",NA,"YES",0,0,0,0,0,0,1,0,31428344,"Deciduous","BC","11_13_BC_000088.JPG","11_13_BC_000089.JPG","11_13_BC_000090.JPG",11,13,1,1
"101",104,154687204,31428637,"not-logged-in-c0f4764cf2440f8a61d4",123.17,1,"T0",NA,"list(list(choice = ""DEERWHITETAILED"", answers = list(HOWMANY = ""1"", SNOWDEPTH = ""010CM"", YOUNGPRESENT = ""NO"", ANTLERSPRESENT = ""NO"", PRECIPITATIONRAINSNOW = ""YES"", WHATBEHAVIORSDOYOUSEE = list(""WALKINGRUNNING"")), filters = list()))",1,1,"DEERWHITETAILED",NA,1,"010CM","NO","NO","YES",0,0,0,0,0,0,0,1,31428637,"Pine","WHIP","18_16_WHIP_000052.JPG","18_16_WHIP_000053.JPG","18_16_WHIP_000054.JPG",18,16,1,1
"102",105,154687316,31428794,"HMonnat",123.17,1,"T0",NA,"list(list(choice = ""NOTHINGHERE"", answers = list(), filters = list()))",1,1,"NOTHINGHERE",NA,NA,NA,NA,NA,NA,NA,NA,NA,NA,NA,NA,NA,NA,31428794,"Pine","WF","22_18_WF_0280.JPG","22_18_WF_0281.JPG","22_18_WF_0282.JPG",22,18,1,1
"103",106,154687416,31428743,"not-logged-in-2934684bed4edb96e1d8",123.17,1,"T0",NA,"list(list(choice = ""COYOTE"", answers = list(HOWMANY = ""1"", YOUNGPRESENT = ""NO"", PRECIPITATIONRAINSNOW = ""YES"", WHATBEHAVIORSDOYOUSEE = list(""WALKINGRUNNING"")), filters = list(TYPE = ""DOGLIKECARNIVORE"")))",1,1,"COYOTE",NA,1,NA,"NO",NA,"YES",0,0,0,0,0,0,0,1,31428743,"Pine","WF","22_18_WF_0124.JPG","22_18_WF_0125.JPG","22_18_WF_0126.JPG",22,18,1,1
"104",107,154687425,31429103,"MWillis875",123.17,1,"T0",NA,"list(list(choice = ""DEERWHITETAILED"", answers = list(HOWMANY = ""1"", SNOWDEPTH = ""2030CM"", YOUNGPRESENT = ""NO"", ANTLERSPRESENT = ""NO"", PRECIPITATIONRAINSNOW = ""NO"", WHATBEHAVIORSDOYOUSEE = list(""FORAGINGEATING"")), filters = list(TYPE = ""HOOVEDMAMMAL"")))",1,1,"DEERWHITETAILED",NA,1,"2030CM","NO","NO","NO",0,0,0,1,0,0,0,0,31429103,"Pine","DEG","29_19_DEG_0529.JPG","29_19_DEG_0530.JPG","29_19_DEG_0531.JPG",29,19,1,1
"105",108,154687524,31428680,"abuckley2681",123.17,1,"T0",NA,"list(list(choice = ""NOTHINGHERE"", answers = list(), filters = list()))",1,1,"NOTHINGHERE",NA,NA,NA,NA,NA,NA,NA,NA,NA,NA,NA,NA,NA,NA,31428680,"Deciduous","DON","21_21_DON_0114.JPG","21_21_DON_0115.JPG","21_21_DON_0116.JPG",21,21,1,1
"106",109,154687630,31428470,"MWillis875",123.17,1,"T0",NA,"list(list(choice = ""DEERWHITETAILED"", answers = list(HOWMANY = ""1"", SNOWDEPTH = ""010CM"", YOUNGPRESENT = ""NO"", ANTLERSPRESENT = ""NO"", PRECIPITATIONRAINSNOW = ""NO"", WHATBEHAVIORSDOYOUSEE = list(""SITTINGSTANDINGLYING"")), filters = list()))",1,1,"DEERWHITETAILED",NA,1,"010CM","NO","NO","NO",0,0,0,0,0,0,1,0,31428470,"Pine","DEG","15_14_DEG_000061.JPG","15_14_DEG_000062.JPG","15_14_DEG_000063.JPG",15,14,1,1
"107",110,154687664,31428876,"not-logged-in-2934684bed4edb96e1d8",123.17,1,"T0",NA,"list(list(choice = ""DEERWHITETAILED"", answers = list(HOWMANY = ""1"", YOUNGPRESENT = ""NO"", PRECIPITATIONRAINSNOW = ""YES"", WHATBEHAVIORSDOYOUSEE = list(""WALKINGRUNNING"")), filters = list()))",1,1,"DEERWHITETAILED",NA,1,NA,"NO",NA,"YES",0,0,0,0,0,0,0,1,31428876,"Deciduous","BC","24_04_BC_0034.JPG","24_04_BC_0035.JPG","24_04_BC_0036.JPG",24,4,1,1
"108",111,154687673,31428600,"abuckley2681",123.17,1,"T0",NA,"list(list(choice = ""SQUIRRELGRAY"", answers = list(), filters = list()))",1,1,"SQUIRRELGRAY",NA,NA,NA,NA,NA,NA,NA,NA,NA,NA,NA,NA,NA,NA,31428600,"Deciduous","BC","17_24_BC_000214.JPG","17_24_BC_000215.JPG","17_24_BC_000216.JPG",17,24,1,1
"109",113,154687895,31428314,"MWillis875",123.17,1,"T0",NA,"list(list(choice = ""SQUIRRELGRAY"", answers = list(HOWMANY = ""1"", SNOWDEPTH = ""010CM"", YOUNGPRESENT = ""NO"", PRECIPITATIONRAINSNOW = ""NO"", WHATBEHAVIORSDOYOUSEE = list(""SITTINGSTANDINGLYING"")), filters = list()))",1,1,"SQUIRRELGRAY",NA,1,"010CM","NO",NA,"NO",0,0,0,0,0,0,1,0,31428314,"Pine","WF","09_25_WF_000004.JPG","09_25_WF_000005.JPG","09_25_WF_000006.JPG",9,25,1,1
"110",114,154688204,31428889,"abuckley2681",123.17,1,"T0",NA,"list(list(choice = ""NOTHINGHERE"", answers = list(), filters = list()))",1,1,"NOTHINGHERE",NA,NA,NA,NA,NA,NA,NA,NA,NA,NA,NA,NA,NA,NA,31428889,"Deciduous","BC","24_04_BC_0073.JPG","24_04_BC_0074.JPG","24_04_BC_0075.JPG",24,4,1,1
"111",117,154688625,31428618,"not-logged-in-2934684bed4edb96e1d8",123.17,1,"T0",NA,"list(list(choice = ""SQUIRRELRED"", answers = list(HOWMANY = ""1"", SNOWDEPTH = ""3040CM"", YOUNGPRESENT = ""NO"", PRECIPITATIONRAINSNOW = ""NO"", WHATBEHAVIORSDOYOUSEE = list(""WALKINGRUNNING"")), filters = list(TYPE = ""RODENTORRABBIT"")))",1,1,"SQUIRRELRED",NA,1,"3040CM","NO",NA,"NO",0,0,0,0,0,0,0,1,31428618,"Deciduous","BC","17_24_BC_000268.JPG","17_24_BC_000269.JPG","17_24_BC_000270.JPG",17,24,1,1
"112",118,154688766,31429000,"abuckley2681",123.17,1,"T0",NA,"list(list(choice = ""DEERWHITETAILED"", answers = list(HOWMANY = ""1"", SNOWDEPTH = ""010CM"", YOUNGPRESENT = ""NO"", ANTLERSPRESENT = ""NO"", PRECIPITATIONRAINSNOW = ""YES"", WHATBEHAVIORSDOYOUSEE = list(""FORAGINGEATING"")), filters = list()))",1,1,"DEERWHITETAILED",NA,1,"010CM","NO","NO","YES",0,0,0,1,0,0,0,0,31429000,"Pine","DEG","29_19_DEG_0220.JPG","29_19_DEG_0221.JPG","29_19_DEG_0222.JPG",29,19,1,1
"113",119,154688907,31428788,"abuckley2681",123.17,1,"T0",NA,"list(list(choice = ""DEERWHITETAILED"", answers = list(HOWMANY = ""1"", SNOWDEPTH = ""1020CM"", YOUNGPRESENT = ""NO"", ANTLERSPRESENT = ""NO"", PRECIPITATIONRAINSNOW = ""NO"", WHATBEHAVIORSDOYOUSEE = list(""WALKINGRUNNING"")), filters = list()))",1,1,"DEERWHITETAILED",NA,1,"1020CM","NO","NO","NO",0,0,0,0,0,0,0,1,31428788,"Pine","WF","22_18_WF_0262.JPG","22_18_WF_0263.JPG","22_18_WF_0264.JPG",22,18,1,1
"114",120,154688986,31429174,"MWillis875",123.17,1,"T0",NA,"list(list(choice = ""MOUNTAINLION"", answers = list(HOWMANY = ""1"", SNOWDEPTH = ""010CM"", YOUNGPRESENT = ""NO"", PRECIPITATIONRAINSNOW = ""NO"", WHATBEHAVIORSDOYOUSEE = list(""WALKINGRUNNING"")), filters = list()))",1,1,"MOUNTAINLION",NA,1,"010CM","NO",NA,"NO",0,0,0,0,0,0,0,1,31429174,"Pine","WF","33_01_WF_0061.JPG","33_01_WF_0062.JPG","33_01_WF_0063.JPG",33,1,1,1
"115",121,154689053,31428741,"abuckley2681",123.17,1,"T0",NA,"list(list(choice = ""DEERWHITETAILED"", answers = list(HOWMANY = ""1"", SNOWDEPTH = ""010CM"", YOUNGPRESENT = ""NO"", ANTLERSPRESENT = ""NO"", PRECIPITATIONRAINSNOW = ""NO"", WHATBEHAVIORSDOYOUSEE = list(""WALKINGRUNNING"")), filters = list()))",1,1,"DEERWHITETAILED",NA,1,"010CM","NO","NO","NO",0,0,0,0,0,0,0,1,31428741,"Pine","WF","22_18_WF_0118.JPG","22_18_WF_0119.JPG","22_18_WF_0120.JPG",22,18,1,1
"116",122,154689230,31428829,"abuckley2681",123.17,1,"T0",NA,"list(list(choice = ""NOTHINGHERE"", answers = list(), filters = list()))",1,1,"NOTHINGHERE",NA,NA,NA,NA,NA,NA,NA,NA,NA,NA,NA,NA,NA,NA,31428829,"Deciduous","SH","23_03_SH_0013.JPG","23_03_SH_0014.JPG","23_03_SH_0015.JPG",23,3,1,1
"117",123,154689291,31428308,"not-logged-in-ea8b6654dd2e422db430",123.17,1,"T0",NA,"list(list(choice = ""SOMETHINGHERE"", answers = list(), filters = list()))",1,1,"SOMETHINGHERE",NA,NA,NA,NA,NA,NA,NA,NA,NA,NA,NA,NA,NA,NA,31428308,"Pine","DEG","08_23_DEG_000001.JPG","08_23_DEG_000002.JPG","08_23_DEG_000003.JPG",8,23,1,1
"118",125,154689451,31428482,"Hartk",123.17,1,"T0",NA,"list(list(choice = ""DEERWHITETAILED"", answers = list(HOWMANY = ""1"", SNOWDEPTH = ""1020CM"", YOUNGPRESENT = ""NO"", ANTLERSPRESENT = ""NO"", PRECIPITATIONRAINSNOW = ""NO"", WHATBEHAVIORSDOYOUSEE = list(""WALKINGRUNNING"")), filters = list()))",1,1,"DEERWHITETAILED",NA,1,"1020CM","NO","NO","NO",0,0,0,0,0,0,0,1,31428482,"Pine","DEG","15_14_DEG_000097.JPG","15_14_DEG_000098.JPG","15_14_DEG_000099.JPG",15,14,1,1
"119",126,154689578,31428511,"Hartk",123.17,1,"T0",NA,"list(list(choice = ""DEERWHITETAILED"", answers = list(HOWMANY = ""1"", YOUNGPRESENT = ""NO"", ANTLERSPRESENT = ""NO"", PRECIPITATIONRAINSNOW = ""NO"", WHATBEHAVIORSDOYOUSEE = list(""WALKINGRUNNING"")), filters = list()))",1,1,"DEERWHITETAILED",NA,1,NA,"NO","NO","NO",0,0,0,0,0,0,0,1,31428511,"Pine","DEG","15_14_DEG_000190.JPG","15_14_DEG_000191.JPG","15_14_DEG_000192.JPG",15,14,1,1
"120",127,154689697,31429098,"not-logged-in-ea8b6654dd2e422db430",123.17,1,"T0",NA,"list(list(choice = ""DEERWHITETAILED"", answers = list(HOWMANY = ""1"", SNOWDEPTH = ""3040CM"", YOUNGPRESENT = ""NO"", ANTLERSPRESENT = ""NO"", WHATBEHAVIORSDOYOUSEE = list(""WALKINGRUNNING"")), filters = list()))",1,1,"DEERWHITETAILED",NA,1,"3040CM","NO","NO",NA,0,0,0,0,0,0,0,1,31429098,"Pine","DEG","29_19_DEG_0514.JPG","29_19_DEG_0515.JPG","29_19_DEG_0516.JPG",29,19,1,1
"121",128,154689716,31428375,"not-logged-in-42881cd7c1c2c2f4d1fc",123.17,1,"T0",NA,"list(list(choice = ""SQUIRRELGRAY"", answers = list(HOWMANY = ""1"", SNOWDEPTH = ""1020CM"", YOUNGPRESENT = ""NO"", PRECIPITATIONRAINSNOW = ""YES"", WHATBEHAVIORSDOYOUSEE = list(""WALKINGRUNNING"", ""FORAGINGEATING"")), filters = list()))",1,1,"SQUIRRELGRAY",NA,1,"1020CM","NO",NA,"YES",0,0,0,1,0,0,0,1,31428375,"Deciduous","BC","11_13_BC_000184.JPG","11_13_BC_000185.JPG","11_13_BC_000186.JPG",11,13,1,1
"122",129,154689789,31428558,"not-logged-in-a171f677a40edce0c0ab",123.17,1,"T0",NA,"list(list(choice = ""SOMETHINGHERE"", answers = list(), filters = list()))",1,1,"SOMETHINGHERE",NA,NA,NA,NA,NA,NA,NA,NA,NA,NA,NA,NA,NA,NA,31428558,"Deciduous","BC","17_24_BC_000088.JPG","17_24_BC_000089.JPG","17_24_BC_000090.JPG",17,24,1,1
"123",130,154689840,31429140,"HMonnat",123.17,1,"T0",NA,"list(list(choice = ""SOMETHINGHERE"", answers = list(), filters = list()))",1,1,"SOMETHINGHERE",NA,NA,NA,NA,NA,NA,NA,NA,NA,NA,NA,NA,NA,NA,31429140,"Pine","WHIP","32_17_WHIP_0031.JPG","32_17_WHIP_0032.JPG","32_17_WHIP_0033.JPG",32,17,1,1
"124",131,154689864,31428472,"Hartk",123.17,1,"T0",NA,"list(list(choice = ""DEERWHITETAILED"", answers = list(HOWMANY = ""1"", SNOWDEPTH = ""1020CM"", YOUNGPRESENT = ""NO"", ANTLERSPRESENT = ""NO"", PRECIPITATIONRAINSNOW = ""NO"", WHATBEHAVIORSDOYOUSEE = list(""FORAGINGEATING"")), filters = list()))",1,1,"DEERWHITETAILED",NA,1,"1020CM","NO","NO","NO",0,0,0,1,0,0,0,0,31428472,"Pine","DEG","15_14_DEG_000067.JPG","15_14_DEG_000068.JPG","15_14_DEG_000069.JPG",15,14,1,1
"125",133,154690067,31428406,"Hartk",123.17,1,"T0",NA,"list(list(choice = ""NOTHINGHERE"", answers = list(), filters = list()))",1,1,"NOTHINGHERE",NA,NA,NA,NA,NA,NA,NA,NA,NA,NA,NA,NA,NA,NA,31428406,"Deciduous","BC","11_13_BC_000277.JPG","11_13_BC_000278.JPG","11_13_BC_000279.JPG",11,13,1,1
"126",134,154690136,31428604,"not-logged-in-d0b06505b62640b2f255",123.17,1,"T0",NA,"list(list(choice = ""DEERWHITETAILED"", answers = list(HOWMANY = ""1"", YOUNGPRESENT = ""NO"", ANTLERSPRESENT = ""NO"", PRECIPITATIONRAINSNOW = ""NO"", WHATBEHAVIORSDOYOUSEE = list(""WALKINGRUNNING"")), filters = list()))",1,1,"DEERWHITETAILED",NA,1,NA,"NO","NO","NO",0,0,0,0,0,0,0,1,31428604,"Deciduous","BC","17_24_BC_000226.JPG","17_24_BC_000227.JPG","17_24_BC_000228.JPG",17,24,1,1
"127",135,154690184,31429016,"not-logged-in-a171f677a40edce0c0ab",123.17,1,"T0",NA,"list(list(choice = ""NOTHINGHERE"", answers = list(), filters = list()))",1,1,"NOTHINGHERE",NA,NA,NA,NA,NA,NA,NA,NA,NA,NA,NA,NA,NA,NA,31429016,"Pine","DEG","29_19_DEG_0268.JPG","29_19_DEG_0269.JPG","29_19_DEG_0270.JPG",29,19,1,1
"128",136,154690219,31428873,"abuckley2681",123.17,1,"T0",NA,"list(list(choice = ""HUMAN"", answers = list(HOWMANY = ""1"", PRECIPITATIONRAINSNOW = ""NO"", WHATBEHAVIORSDOYOUSEE = list(""SITTINGSTANDINGLYING"")), filters = list()))",1,1,"HUMAN",NA,1,NA,NA,NA,"NO",0,0,0,0,0,0,1,0,31428873,"Deciduous","BC","24_04_BC_0025.JPG","24_04_BC_0026.JPG","24_04_BC_0027.JPG",24,4,1,1
"129",137,154690245,31428481,"MWillis875",123.17,1,"T0",NA,"list(list(choice = ""DEERWHITETAILED"", answers = list(HOWMANY = ""1"", SNOWDEPTH = ""010CM"", YOUNGPRESENT = ""NO"", ANTLERSPRESENT = ""YES"", PRECIPITATIONRAINSNOW = ""NO"", WHATBEHAVIORSDOYOUSEE = list(""WALKINGRUNNING"")), filters = list()))",1,1,"DEERWHITETAILED",NA,1,"010CM","NO","YES","NO",0,0,0,0,0,0,0,1,31428481,"Pine","DEG","15_14_DEG_000094.JPG","15_14_DEG_000095.JPG","15_14_DEG_000096.JPG",15,14,1,1
"130",139,154690270,31428648,"abuckley2681",123.17,1,"T0",NA,"list(list(choice = ""NOTHINGHERE"", answers = list(), filters = list()))",1,1,"NOTHINGHERE",NA,NA,NA,NA,NA,NA,NA,NA,NA,NA,NA,NA,NA,NA,31428648,"Deciduous","DON","21_21_DON_0015.JPG","21_21_DON_0016.JPG","21_21_DON_0017.JPG",21,21,1,1
"131",140,154690379,31428735,"Hartk",123.17,1,"T0",NA,"list(list(choice = ""SOMETHINGHERE"", answers = list(), filters = list()), list(choice = ""DEERWHITETAILED"", answers = list(HOWMANY = ""1"", SNOWDEPTH = ""010CM"", YOUNGPRESENT = ""NO"", ANTLERSPRESENT = ""YES"", WHATBEHAVIORSDOYOUSEE = list(""WALKINGRUNNING"")), filters = list()))",2,1,"SOMETHINGHERE",NA,NA,NA,NA,NA,NA,NA,NA,NA,NA,NA,NA,NA,NA,31428735,"Pine","WF","22_18_WF_0100.JPG","22_18_WF_0101.JPG","22_18_WF_0102.JPG",22,18,1,1
"132",142,154690387,31429108,"not-logged-in-a171f677a40edce0c0ab",123.17,1,"T0",NA,"list(list(choice = ""NOTHINGHERE"", answers = list(), filters = list()))",1,1,"NOTHINGHERE",NA,NA,NA,NA,NA,NA,NA,NA,NA,NA,NA,NA,NA,NA,31429108,"Pine","WHIP","31_06_WHIP_0010.JPG","31_06_WHIP_0011.JPG","31_06_WHIP_0012.JPG",31,6,1,1
"133",143,154690422,31429032,"abuckley2681",123.17,1,"T0",NA,"list(list(choice = ""DEERWHITETAILED"", answers = list(HOWMANY = ""1"", SNOWDEPTH = ""3040CM"", YOUNGPRESENT = ""NO"", ANTLERSPRESENT = ""NO"", PRECIPITATIONRAINSNOW = ""NO"", WHATBEHAVIORSDOYOUSEE = list(""WALKINGRUNNING"")), filters = list()))",1,1,"DEERWHITETAILED",NA,1,"3040CM","NO","NO","NO",0,0,0,0,0,0,0,1,31429032,"Pine","DEG","29_19_DEG_0316.JPG","29_19_DEG_0317.JPG","29_19_DEG_0318.JPG",29,19,1,1
"134",144,154690447,31428690,"not-logged-in-d0b06505b62640b2f255",123.17,1,"T0",NA,"list(list(choice = ""NOTHINGHERE"", answers = list(), filters = list()))",1,1,"NOTHINGHERE",NA,NA,NA,NA,NA,NA,NA,NA,NA,NA,NA,NA,NA,NA,31428690,"Deciduous","DON","21_21_DON_0144.JPG","21_21_DON_0145.JPG","21_21_DON_0146.JPG",21,21,1,1
"135",145,154690473,31428773,"HMonnat",123.17,1,"T0",NA,"list(list(choice = ""DEERWHITETAILED"", answers = list(HOWMANY = ""1"", SNOWDEPTH = ""2030CM"", YOUNGPRESENT = ""NO"", ANTLERSPRESENT = ""NO"", PRECIPITATIONRAINSNOW = ""NO"", WHATBEHAVIORSDOYOUSEE = list(""WALKINGRUNNING"")), filters = list()))",1,1,"DEERWHITETAILED",NA,1,"2030CM","NO","NO","NO",0,0,0,0,0,0,0,1,31428773,"Pine","WF","22_18_WF_0217.JPG","22_18_WF_0218.JPG","22_18_WF_0219.JPG",22,18,1,1
"136",146,154690475,31428672,"not-logged-in-42881cd7c1c2c2f4d1fc",123.17,1,"T0",NA,"list(list(choice = ""NOTHINGHERE"", answers = list(), filters = list()))",1,1,"NOTHINGHERE",NA,NA,NA,NA,NA,NA,NA,NA,NA,NA,NA,NA,NA,NA,31428672,"Deciduous","DON","21_21_DON_0090.JPG","21_21_DON_0091.JPG","21_21_DON_0092.JPG",21,21,1,1
"137",147,154690490,31428448,"Hartk",123.17,1,"T0",NA,"list(list(choice = ""SOMETHINGHERE"", answers = list(), filters = list()))",1,1,"SOMETHINGHERE",NA,NA,NA,NA,NA,NA,NA,NA,NA,NA,NA,NA,NA,NA,31428448,"Deciduous","DON","14_22_DON_000118.JPG","14_22_DON_000119.JPG","14_22_DON_000120.JPG",14,22,1,1
"138",148,154690549,31428710,"abuckley2681",123.17,1,"T0",NA,"list(list(choice = ""DEERWHITETAILED"", answers = list(HOWMANY = ""1"", SNOWDEPTH = ""1020CM"", YOUNGPRESENT = ""NO"", ANTLERSPRESENT = ""NO"", PRECIPITATIONRAINSNOW = ""NO"", WHATBEHAVIORSDOYOUSEE = list(""WALKINGRUNNING"")), filters = list()))",1,1,"DEERWHITETAILED",NA,1,"1020CM","NO","NO","NO",0,0,0,0,0,0,0,1,31428710,"Pine","WF","22_18_WF_0022.JPG","22_18_WF_0023.JPG","22_18_WF_0024.JPG",22,18,1,1
"139",149,154690612,31428642,"Hartk",123.17,1,"T0",NA,"list(list(choice = ""NOTHINGHERE"", answers = list(), filters = list()))",1,1,"NOTHINGHERE",NA,NA,NA,NA,NA,NA,NA,NA,NA,NA,NA,NA,NA,NA,31428642,"Deciduous","DON","21_21_DON__0027.JPG","21_21_DON_0028.JPG","21_21_DON_0029.JPG",21,21,1,1
"140",151,154690680,31429027,"abuckley2681",123.17,1,"T0",NA,"list(list(choice = ""DEERWHITETAILED"", answers = list(HOWMANY = ""1"", SNOWDEPTH = ""3040CM"", YOUNGPRESENT = ""NO"", ANTLERSPRESENT = ""NO"", PRECIPITATIONRAINSNOW = ""NO"", WHATBEHAVIORSDOYOUSEE = list(""WALKINGRUNNING"")), filters = list()))",1,1,"DEERWHITETAILED",NA,1,"3040CM","NO","NO","NO",0,0,0,0,0,0,0,1,31429027,"Pine","DEG","29_19_DEG_0301.JPG","29_19_DEG_0302.JPG","29_19_DEG_0303.JPG",29,19,1,1
"141",152,154690721,31428635,"MWillis875",123.17,1,"T0",NA,"list(list(choice = ""SOMETHINGHERE"", answers = list(), filters = list()))",1,1,"SOMETHINGHERE",NA,NA,NA,NA,NA,NA,NA,NA,NA,NA,NA,NA,NA,NA,31428635,"Pine","WHIP","18_16_WHIP_000046.JPG","18_16_WHIP_000047.JPG","18_16_WHIP_000048.JPG",18,16,1,1
"142",153,154690831,31429137,"not-logged-in-d0b06505b62640b2f255",123.17,1,"T0",NA,"list(list(choice = ""DEERWHITETAILED"", answers = list(HOWMANY = ""1"", SNOWDEPTH = ""010CM"", YOUNGPRESENT = ""NO"", ANTLERSPRESENT = ""NO"", PRECIPITATIONRAINSNOW = ""NO"", WHATBEHAVIORSDOYOUSEE = list(""SITTINGSTANDINGLYING"")), filters = list()))",1,1,"DEERWHITETAILED",NA,1,"010CM","NO","NO","NO",0,0,0,0,0,0,1,0,31429137,"Pine","WHIP","32_17_WHIP_0022.JPG","32_17_WHIP_0023.JPG","32_17_WHIP_0024.JPG",32,17,1,1
"143",154,154690832,31428316,"abuckley2681",123.17,1,"T0",NA,"list(list(choice = ""DEERWHITETAILED"", answers = list(HOWMANY = ""2"", SNOWDEPTH = ""1020CM"", YOUNGPRESENT = ""NO"", ANTLERSPRESENT = ""NO"", PRECIPITATIONRAINSNOW = ""YES"", WHATBEHAVIORSDOYOUSEE = list(""WALKINGRUNNING"")), filters = list()))",1,1,"DEERWHITETAILED",NA,2,"1020CM","NO","NO","YES",0,0,0,0,0,0,0,1,31428316,"Deciduous","BC","11_13_BC_000004.JPG","11_13_BC_000005.JPG","11_13_BC_000006.JPG",11,13,1,1
"144",155,154690950,31428719,"Hartk",123.17,1,"T0",NA,"list(list(choice = ""FISHER"", answers = list(HOWMANY = ""1"", SNOWDEPTH = ""1020CM"", YOUNGPRESENT = ""NO"", PRECIPITATIONRAINSNOW = ""NO"", WHATBEHAVIORSDOYOUSEE = list(""WALKINGRUNNING"")), filters = list()))",1,1,"FISHER",NA,1,"1020CM","NO",NA,"NO",0,0,0,0,0,0,0,1,31428719,"Pine","WF","22_18_WF_0052.JPG","22_18_WF_0053.JPG","22_18_WF_0054.JPG",22,18,1,1
"145",156,154691003,31428886,"abuckley2681",123.17,1,"T0",NA,"list(list(choice = ""SQUIRRELGRAY"", answers = list(HOWMANY = ""1"", SNOWDEPTH = ""1020CM"", YOUNGPRESENT = ""NO"", PRECIPITATIONRAINSNOW = ""NO"", WHATBEHAVIORSDOYOUSEE = list(""CLIMBING"")), filters = list()))",1,1,"SQUIRRELGRAY",NA,1,"1020CM","NO",NA,"NO",1,0,0,0,0,0,0,0,31428886,"Deciduous","BC","24_04_BC_0064.JPG","24_04_BC_0065.JPG","24_04_BC_0066.JPG",24,4,1,1
"146",157,154691058,31429042,"abuckley2681",123.17,1,"T0",NA,"list(list(choice = ""NOTHINGHERE"", answers = list(), filters = list()))",1,1,"NOTHINGHERE",NA,NA,NA,NA,NA,NA,NA,NA,NA,NA,NA,NA,NA,NA,31429042,"Pine","DEG","29_19_DEG_0346.JPG","29_19_DEG_0347.JPG","29_19_DEG_0348.JPG",29,19,1,1
"147",158,154691106,31428572,"not-logged-in-d0b06505b62640b2f255",123.17,1,"T0",NA,"list(list(choice = ""DEERWHITETAILED"", answers = list(HOWMANY = ""1"", YOUNGPRESENT = ""NO"", ANTLERSPRESENT = ""NO"", PRECIPITATIONRAINSNOW = ""NO"", WHATBEHAVIORSDOYOUSEE = list(""WALKINGRUNNING"")), filters = list()))",1,1,"DEERWHITETAILED",NA,1,NA,"NO","NO","NO",0,0,0,0,0,0,0,1,31428572,"Deciduous","BC","17_24_BC_000130.JPG","17_24_BC_000131.JPG","17_24_BC_000132.JPG",17,24,1,1
"148",159,154691191,31428373,"abuckley2681",123.17,1,"T0",NA,"list(list(choice = ""GROUSERUFFED"", answers = list(HOWMANY = ""1"", SNOWDEPTH = ""1020CM"", YOUNGPRESENT = ""NO"", PRECIPITATIONRAINSNOW = ""NO"", WHATBEHAVIORSDOYOUSEE = list(""WALKINGRUNNING"")), filters = list()))",1,1,"GROUSERUFFED",NA,1,"1020CM","NO",NA,"NO",0,0,0,0,0,0,0,1,31428373,"Deciduous","BC","11_13_BC_000178.JPG","11_13_BC_000179.JPG","11_13_BC_000180.JPG",11,13,1,1
"149",160,154691232,31428581,"Hartk",123.17,1,"T0",NA,"list(list(choice = ""DEERWHITETAILED"", answers = list(HOWMANY = ""1"", YOUNGPRESENT = ""NO"", ANTLERSPRESENT = ""NO"", PRECIPITATIONRAINSNOW = ""NO"", WHATBEHAVIORSDOYOUSEE = list(""WALKINGRUNNING"")), filters = list()))",1,1,"DEERWHITETAILED",NA,1,NA,"NO","NO","NO",0,0,0,0,0,0,0,1,31428581,"Deciduous","BC","17_24_BC_000157.JPG","17_24_BC_000158.JPG","17_24_BC_000159.JPG",17,24,1,1
"150",161,154691311,31428431,"HMonnat",123.17,1,"T0",NA,"list(list(choice = ""DEERWHITETAILED"", answers = list(HOWMANY = ""1"", SNOWDEPTH = ""010CM"", YOUNGPRESENT = ""NO"", ANTLERSPRESENT = ""NO"", PRECIPITATIONRAINSNOW = ""NO"", WHATBEHAVIORSDOYOUSEE = list(""WALKINGRUNNING"")), filters = list()))",1,1,"DEERWHITETAILED",NA,1,"010CM","NO","NO","NO",0,0,0,0,0,0,0,1,31428431,"Deciduous","DON","14_22_DON_000067.JPG","14_22_DON_000068.JPG","14_22_DON_000069.JPG",14,22,1,1
"151",162,154691345,31429061,"not-logged-in-42881cd7c1c2c2f4d1fc",123.17,1,"T0",NA,"list(list(choice = ""COYOTE"", answers = list(HOWMANY = ""1"", YOUNGPRESENT = ""NO"", PRECIPITATIONRAINSNOW = ""NO"", WHATBEHAVIORSDOYOUSEE = list(""WALKINGRUNNING"")), filters = list()))",1,1,"COYOTE",NA,1,NA,"NO",NA,"NO",0,0,0,0,0,0,0,1,31429061,"Pine","DEG","29_19_DEG_0403.JPG","29_19_DEG_0404.JPG","29_19_DEG_0405.JPG",29,19,1,1
"152",164,154691385,31428476,"abuckley2681",123.17,1,"T0",NA,"list(list(choice = ""DEERWHITETAILED"", answers = list(HOWMANY = ""1"", SNOWDEPTH = ""010CM"", YOUNGPRESENT = ""NO"", ANTLERSPRESENT = ""YES"", PRECIPITATIONRAINSNOW = ""NO"", WHATBEHAVIORSDOYOUSEE = list(""WALKINGRUNNING"")), filters = list()))",1,1,"DEERWHITETAILED",NA,1,"010CM","NO","YES","NO",0,0,0,0,0,0,0,1,31428476,"Pine","DEG","15_14_DEG_000079.JPG","15_14_DEG_000080.JPG","15_14_DEG_000081.JPG",15,14,1,1
"153",165,154691520,31428619,"not-logged-in-d0b06505b62640b2f255",123.17,1,"T0",NA,"list(list(choice = ""SQUIRRELGRAY"", answers = list(HOWMANY = ""1"", YOUNGPRESENT = ""NO"", PRECIPITATIONRAINSNOW = ""NO"", WHATBEHAVIORSDOYOUSEE = list(""WALKINGRUNNING"")), filters = list()))",1,1,"SQUIRRELGRAY",NA,1,NA,"NO",NA,"NO",0,0,0,0,0,0,0,1,31428619,"Deciduous","BC","17_24_BC_000271.JPG","17_24_BC_000272.JPG","17_24_BC_000273.JPG",17,24,1,1
"154",166,154691579,31429129,"abuckley2681",123.17,1,"T0",NA,"list(list(choice = ""HUMAN"", answers = list(HOWMANY = ""1""), filters = list()))",1,1,"HUMAN",NA,1,NA,NA,NA,NA,NA,NA,NA,NA,NA,NA,NA,NA,31429129,"Pine","WHIP","31_06_WHIP_0076.JPG","31_06_WHIP_0077.JPG","31_06_WHIP_0078.JPG",31,6,1,1
"155",167,154691653,31428775,"not-logged-in-a171f677a40edce0c0ab",123.17,1,"T0",NA,"list(list(choice = ""DEERWHITETAILED"", answers = list(HOWMANY = ""1"", SNOWDEPTH = ""2030CM"", YOUNGPRESENT = ""NO"", ANTLERSPRESENT = ""NO"", PRECIPITATIONRAINSNOW = ""YES"", WHATBEHAVIORSDOYOUSEE = list(""WALKINGRUNNING"")), filters = list()))",1,1,"DEERWHITETAILED",NA,1,"2030CM","NO","NO","YES",0,0,0,0,0,0,0,1,31428775,"Pine","WF","22_18_WF_0223.JPG","22_18_WF_0224.JPG","22_18_WF_0225.JPG",22,18,1,1
"156",168,154691659,31428432,"HMonnat",123.17,1,"T0",NA,"list(list(choice = ""RACCOON"", answers = list(HOWMANY = ""1"", SNOWDEPTH = ""010CM"", YOUNGPRESENT = ""NO"", PRECIPITATIONRAINSNOW = ""NO"", WHATBEHAVIORSDOYOUSEE = list(""WALKINGRUNNING"")), filters = list()))",1,1,"RACCOON",NA,1,"010CM","NO",NA,"NO",0,0,0,0,0,0,0,1,31428432,"Deciduous","DON","14_22_DON_000070.JPG","14_22_DON_000071.JPG","14_22_DON_000072.JPG",14,22,1,1
"157",169,154691675,31429036,"abuckley2681",123.17,1,"T0",NA,"list(list(choice = ""DEERWHITETAILED"", answers = list(HOWMANY = ""1"", SNOWDEPTH = ""2030CM"", YOUNGPRESENT = ""NO"", PRECIPITATIONRAINSNOW = ""NO"", WHATBEHAVIORSDOYOUSEE = list(""WALKINGRUNNING"")), filters = list()))",1,1,"DEERWHITETAILED",NA,1,"2030CM","NO",NA,"NO",0,0,0,0,0,0,0,1,31429036,"Pine","DEG","29_19_DEG_0328.JPG","29_19_DEG_0329.JPG","29_19_DEG_0330.JPG",29,19,1,1
"158",170,154691776,31428486,"abuckley2681",123.17,1,"T0",NA,"list(list(choice = ""DEERWHITETAILED"", answers = list(HOWMANY = ""1"", SNOWDEPTH = ""1020CM"", YOUNGPRESENT = ""NO"", PRECIPITATIONRAINSNOW = ""NO"", WHATBEHAVIORSDOYOUSEE = list(""WALKINGRUNNING"")), filters = list()))",1,1,"DEERWHITETAILED",NA,1,"1020CM","NO",NA,"NO",0,0,0,0,0,0,0,1,31428486,"Pine","DEG","15_14_DEG_000109.JPG","15_14_DEG_000110.JPG","15_14_DEG_000111.JPG",15,14,1,1
"159",171,154691813,31428519,"MWillis875",123.17,1,"T0",NA,"list(list(choice = ""DEERWHITETAILED"", answers = list(HOWMANY = ""1"", SNOWDEPTH = ""3040CM"", YOUNGPRESENT = ""NO"", ANTLERSPRESENT = ""NO"", PRECIPITATIONRAINSNOW = ""NO"", WHATBEHAVIORSDOYOUSEE = list(""WALKINGRUNNING"")), filters = list()))",1,1,"DEERWHITETAILED",NA,1,"3040CM","NO","NO","NO",0,0,0,0,0,0,0,1,31428519,"Pine","DEG","15_14_DEG_000214.JPG","15_14_DEG_000215.JPG","15_14_DEG_000216.JPG",15,14,1,1
"160",172,154691858,31428546,"not-logged-in-42881cd7c1c2c2f4d1fc",123.17,1,"T0",NA,"list(list(choice = ""SOMETHINGHERE"", answers = list(), filters = list()))",1,1,"SOMETHINGHERE",NA,NA,NA,NA,NA,NA,NA,NA,NA,NA,NA,NA,NA,NA,31428546,"Deciduous","BC","17_24_BC_000052.JPG","17_24_BC_000053.JPG","17_24_BC_000054.JPG",17,24,1,1
"161",173,154691894,31428459,"not-logged-in-a171f677a40edce0c0ab",123.17,1,"T0",NA,"list(list(choice = ""NOTHINGHERE"", answers = list(), filters = list()))",1,1,"NOTHINGHERE",NA,NA,NA,NA,NA,NA,NA,NA,NA,NA,NA,NA,NA,NA,31428459,"Pine","DEG","15_14_DEG_000028.JPG","15_14_DEG_000029.JPG","15_14_DEG_000030.JPG",15,14,1,1
"162",174,154691931,31428838,"abuckley2681",123.17,1,"T0",NA,"list(list(choice = ""COYOTE"", answers = list(HOWMANY = ""1"", SNOWDEPTH = ""010CM"", YOUNGPRESENT = ""NO"", PRECIPITATIONRAINSNOW = ""NO"", WHATBEHAVIORSDOYOUSEE = list(""WALKINGRUNNING"")), filters = list()))",1,1,"COYOTE",NA,1,"010CM","NO",NA,"NO",0,0,0,0,0,0,0,1,31428838,"Deciduous","SH","23_03_SH_0040.JPG","23_03_SH_0041.JPG","23_03_SH_0042.JPG",23,3,1,1
"163",175,154691981,31429065,"MWillis875",123.17,1,"T0",NA,"list(list(choice = ""DEERWHITETAILED"", answers = list(HOWMANY = ""35"", SNOWDEPTH = ""1020CM"", YOUNGPRESENT = ""NO"", ANTLERSPRESENT = ""NO"", PRECIPITATIONRAINSNOW = ""NO"", WHATBEHAVIORSDOYOUSEE = list(""WALKINGRUNNING"", ""FORAGINGEATING"")), filters = list()))",1,1,"DEERWHITETAILED",NA,35,"1020CM","NO","NO","NO",0,0,0,1,0,0,0,1,31429065,"Pine","DEG","29_19_DEG_0415.JPG","29_19_DEG_0416.JPG","29_19_DEG_0417.JPG",29,19,1,1
"164",176,154692006,31428590,"abuckley2681",123.17,1,"T0",NA,"list(list(choice = ""DEERWHITETAILED"", answers = list(HOWMANY = ""2"", YOUNGPRESENT = ""NO"", ANTLERSPRESENT = ""NO"", PRECIPITATIONRAINSNOW = ""NO"", WHATBEHAVIORSDOYOUSEE = list(""WALKINGRUNNING"")), filters = list()))",1,1,"DEERWHITETAILED",NA,2,NA,"NO","NO","NO",0,0,0,0,0,0,0,1,31428590,"Deciduous","BC","17_24_BC_000184.JPG","17_24_BC_000185.JPG","17_24_BC_000186.JPG",17,24,1,1
"165",177,154692031,31428840,"not-logged-in-d0b06505b62640b2f255",123.17,1,"T0",NA,"list(list(choice = ""DEERWHITETAILED"", answers = list(HOWMANY = ""1"", SNOWDEPTH = ""010CM"", YOUNGPRESENT = ""YES"", ANTLERSPRESENT = ""NO"", PRECIPITATIONRAINSNOW = ""NO"", WHATBEHAVIORSDOYOUSEE = list(""FORAGINGEATING"")), filters = list()))",1,1,"DEERWHITETAILED",NA,1,"010CM","YES","NO","NO",0,0,0,1,0,0,0,0,31428840,"Deciduous","SH","23_03_SH_0046.JPG","23_03_SH_0047.JPG","23_03_SH_0048.JPG",23,3,1,1
"166",178,154692033,31428491,"HMonnat",123.17,1,"T0",NA,"list(list(choice = ""TURKEY"", answers = list(HOWMANY = ""1"", SNOWDEPTH = ""1020CM"", YOUNGPRESENT = ""NO"", PRECIPITATIONRAINSNOW = ""NO"", WHATBEHAVIORSDOYOUSEE = list(""WALKINGRUNNING"")), filters = list()))",1,1,"TURKEY",NA,1,"1020CM","NO",NA,"NO",0,0,0,0,0,0,0,1,31428491,"Pine","DEG","15_14_DEG_000127.JPG","15_14_DEG_000128.JPG","15_14_DEG_000129.JPG",15,14,1,1
"167",179,154692080,31429109,"MWillis875",123.17,1,"T0",NA,"list(list(choice = ""NOTHINGHERE"", answers = list(), filters = list()))",1,1,"NOTHINGHERE",NA,NA,NA,NA,NA,NA,NA,NA,NA,NA,NA,NA,NA,NA,31429109,"Pine","WHIP","31_06_WHIP_0013.JPG","31_06_WHIP_0014.JPG","31_06_WHIP_0015.JPG",31,6,1,1
"168",180,154692088,31429170,"abuckley2681",123.17,1,"T0",NA,"list(list(choice = ""NOTHINGHERE"", answers = list(), filters = list()))",1,1,"NOTHINGHERE",NA,NA,NA,NA,NA,NA,NA,NA,NA,NA,NA,NA,NA,NA,31429170,"Pine","WF","33_01_WF_0049.JPG","33_01_WF_0050.JPG","33_01_WF_0051.JPG",33,1,1,1
"169",181,154692127,31428880,"not-logged-in-a171f677a40edce0c0ab",123.17,1,"T0",NA,"list(list(choice = ""DEERWHITETAILED"", answers = list(HOWMANY = ""1"", SNOWDEPTH = ""010CM"", YOUNGPRESENT = ""NO"", ANTLERSPRESENT = ""NO"", PRECIPITATIONRAINSNOW = ""NO"", WHATBEHAVIORSDOYOUSEE = list(""WALKINGRUNNING"")), filters = list()))",1,1,"DEERWHITETAILED",NA,1,"010CM","NO","NO","NO",0,0,0,0,0,0,0,1,31428880,"Deciduous","BC","24_04_BC_0046.JPG","24_04_BC_0047.JPG","24_04_BC_0048.JPG",24,4,1,1
"170",182,154692182,31428813,"abuckley2681",123.17,1,"T0",NA,"list(list(choice = ""DEERWHITETAILED"", answers = list(HOWMANY = ""1"", YOUNGPRESENT = ""NO"", ANTLERSPRESENT = ""YES"", PRECIPITATIONRAINSNOW = ""NO"", WHATBEHAVIORSDOYOUSEE = list(""WALKINGRUNNING"")), filters = list()))",1,1,"DEERWHITETAILED",NA,1,NA,"NO","YES","NO",0,0,0,0,0,0,0,1,31428813,"Pine","WF","22_18_WF_0340.JPG","22_18_WF_0341.JPG","22_18_WF_0342.JPG",22,18,1,1
"171",183,154692193,31428291,"Hartk",123.17,1,"T0",NA,"list(list(choice = ""NOTHINGHERE"", answers = list(), filters = list()))",1,1,"NOTHINGHERE",NA,NA,NA,NA,NA,NA,NA,NA,NA,NA,NA,NA,NA,NA,31428291,"Pine","WF","04_26_WF_000001.JPG","04_26_WF_000002.JPG","04_26_WF_000003.JPG",4,26,1,1
"172",184,154692244,31428449,"abuckley2681",123.17,1,"T0",NA,"list(list(choice = ""HUMAN"", answers = list(HOWMANY = ""1"", SNOWDEPTH = ""1020CM"", PRECIPITATIONRAINSNOW = ""NO"", WHATBEHAVIORSDOYOUSEE = list(""WALKINGRUNNING"")), filters = list()))",1,1,"HUMAN",NA,1,"1020CM",NA,NA,"NO",0,0,0,0,0,0,0,1,31428449,"Deciduous","DON","14_22_DON_000121.JPG","14_22_DON_000122.JPG","14_22_DON_000123.JPG",14,22,1,1
"173",185,154692275,31428506,"not-logged-in-d0b06505b62640b2f255",123.17,1,"T0",NA,"list(list(choice = ""DEERWHITETAILED"", answers = list(HOWMANY = ""2"", YOUNGPRESENT = ""NO"", ANTLERSPRESENT = ""NO"", PRECIPITATIONRAINSNOW = ""NO"", WHATBEHAVIORSDOYOUSEE = list(""WALKINGRUNNING"", ""SITTINGSTANDINGLYING"")), filters = list()))",1,1,"DEERWHITETAILED",NA,2,NA,"NO","NO","NO",0,0,0,0,0,0,1,1,31428506,"Pine","DEG","15_14_DEG_000175.JPG","15_14_DEG_000176.JPG","15_14_DEG_000177.JPG",15,14,1,1
"174",186,154692277,31429209,"MWillis875",123.17,1,"T0",NA,"list(list(choice = ""DEERWHITETAILED"", answers = list(HOWMANY = ""1"", SNOWDEPTH = ""4050CM"", YOUNGPRESENT = ""NO"", ANTLERSPRESENT = ""NO"", PRECIPITATIONRAINSNOW = ""NO"", WHATBEHAVIORSDOYOUSEE = list(""WALKINGRUNNING"", ""FORAGINGEATING"")), filters = list()))",1,1,"DEERWHITETAILED",NA,1,"4050CM","NO","NO","NO",0,0,0,1,0,0,0,1,31429209,"Pine","WF","33_01_WF_0175.JPG","33_01_WF_0176.JPG","33_01_WF_0177.JPG",33,1,1,1
"175",188,154692318,31429031,"Hartk",123.17,1,"T0",NA,"list(list(choice = ""DEERWHITETAILED"", answers = list(HOWMANY = ""1"", SNOWDEPTH = ""3040CM"", ANTLERSPRESENT = ""NO"", PRECIPITATIONRAINSNOW = ""NO"", WHATBEHAVIORSDOYOUSEE = list(""WALKINGRUNNING"")), filters = list()))",1,1,"DEERWHITETAILED",NA,1,"3040CM",NA,"NO","NO",0,0,0,0,0,0,0,1,31429031,"Pine","DEG","29_19_DEG_0313.JPG","29_19_DEG_0314.JPG","29_19_DEG_0315.JPG",29,19,1,1
"176",189,154692323,31428965,"not-logged-in-a171f677a40edce0c0ab",123.17,1,"T0",NA,"list(list(choice = ""DEERWHITETAILED"", answers = list(HOWMANY = ""1"", SNOWDEPTH = ""010CM"", YOUNGPRESENT = ""NO"", ANTLERSPRESENT = ""NO"", PRECIPITATIONRAINSNOW = ""NO"", WHATBEHAVIORSDOYOUSEE = list(""WALKINGRUNNING"")), filters = list()))",1,1,"DEERWHITETAILED",NA,1,"010CM","NO","NO","NO",0,0,0,0,0,0,0,1,31428965,"Pine","DEG","29_19_DEG_0103.JPG","29_19_DEG_0104.JPG","29_19_DEG_0105.JPG",29,19,1,1
"177",190,154692340,31429138,"abuckley2681",123.17,1,"T0",NA,"list(list(choice = ""SQUIRRELGRAY"", answers = list(HOWMANY = ""1"", SNOWDEPTH = ""010CM"", YOUNGPRESENT = ""NO"", PRECIPITATIONRAINSNOW = ""NO"", WHATBEHAVIORSDOYOUSEE = list(""WALKINGRUNNING"")), filters = list()))",1,1,"SQUIRRELGRAY",NA,1,"010CM","NO",NA,"NO",0,0,0,0,0,0,0,1,31429138,"Pine","WHIP","32_17_WHIP_0025.JPG","32_17_WHIP_0026.JPG","32_17_WHIP_0027.JPG",32,17,1,1
"178",191,154692359,31429107,"Hartk",123.17,1,"T0",NA,"list(list(choice = ""NOTHINGHERE"", answers = list(), filters = list()))",1,1,"NOTHINGHERE",NA,NA,NA,NA,NA,NA,NA,NA,NA,NA,NA,NA,NA,NA,31429107,"Pine","WHIP","31_06_WHIP_0007.JPG","31_06_WHIP_0008.JPG","31_06_WHIP_0009.JPG",31,6,1,1
"179",192,154692435,31428902,"not-logged-in-d0b06505b62640b2f255",123.17,1,"T0",NA,"list(list(choice = ""DEERWHITETAILED"", answers = list(HOWMANY = ""1"", SNOWDEPTH = ""010CM"", YOUNGPRESENT = ""YES"", ANTLERSPRESENT = ""NO"", PRECIPITATIONRAINSNOW = ""NO"", WHATBEHAVIORSDOYOUSEE = list(""FORAGINGEATING"")), filters = list()))",1,1,"DEERWHITETAILED",NA,1,"010CM","YES","NO","NO",0,0,0,1,0,0,0,0,31428902,"Deciduous","SH","25_09_SH_0024.JPG","25_09_SH_0025.JPG","25_09_SH_0026.JPG",25,9,1,1
"180",193,154692488,31428979,"Hartk",123.17,1,"T0",NA,"list(list(choice = ""DEERWHITETAILED"", answers = list(HOWMANY = ""1"", SNOWDEPTH = ""010CM"", YOUNGPRESENT = ""YES"", ANTLERSPRESENT = ""NO"", PRECIPITATIONRAINSNOW = ""NO"", WHATBEHAVIORSDOYOUSEE = list(""WALKINGRUNNING"", ""FORAGINGEATING"")), filters = list()))",1,1,"DEERWHITETAILED",NA,1,"010CM","YES","NO","NO",0,0,0,1,0,0,0,1,31428979,"Pine","DEG","29_19_DEG_0151.JPG","29_19_DEG_0152.JPG","29_19_DEG_0153.JPG",29,19,1,1
"181",194,154692546,31429155,"Hartk",123.17,1,"T0",NA,"list(list(choice = ""HUMAN"", answers = list(HOWMANY = ""1"", PRECIPITATIONRAINSNOW = ""NO"", WHATBEHAVIORSDOYOUSEE = list(""OTHER"")), filters = list()))",1,1,"HUMAN",NA,1,NA,NA,NA,"NO",0,0,0,0,0,1,0,0,31429155,"Pine","WF","33_01_WF_0001.JPG","33_01_WF_0002.JPG","33_01_WF_0003.JPG",33,1,1,1
"182",195,154692585,31428594,"Hartk",123.17,1,"T0",NA,"list(list(choice = ""NOTHINGHERE"", answers = list(), filters = list()))",1,1,"NOTHINGHERE",NA,NA,NA,NA,NA,NA,NA,NA,NA,NA,NA,NA,NA,NA,31428594,"Deciduous","BC","17_24_BC_000196.JPG","17_24_BC_000197.JPG","17_24_BC_000198.JPG",17,24,1,1
"183",196,154692593,31428705,"HMonnat",123.17,1,"T0",NA,"list(list(choice = ""SOMETHINGHERE"", answers = list(), filters = list()))",1,1,"SOMETHINGHERE",NA,NA,NA,NA,NA,NA,NA,NA,NA,NA,NA,NA,NA,NA,31428705,"Pine","WF","22_18_WF_0007.JPG","22_18_WF_0008.JPG","22_18_WF_0009.JPG",22,18,1,1
"184",198,154692629,31429153,"not-logged-in-42881cd7c1c2c2f4d1fc",123.17,1,"T0",NA,"list(list(choice = ""COYOTE"", answers = list(HOWMANY = ""1"", SNOWDEPTH = ""3040CM"", YOUNGPRESENT = ""NO"", PRECIPITATIONRAINSNOW = ""NO"", WHATBEHAVIORSDOYOUSEE = list(""SITTINGSTANDINGLYING"")), filters = list()))",1,1,"COYOTE",NA,1,"3040CM","NO",NA,"NO",0,0,0,0,0,0,1,0,31429153,"Pine","WHIP","32_17_WHIP_0070.JPG","32_17_WHIP_0071.JPG","32_17_WHIP_0072.JPG",32,17,1,1
"185",199,154692661,31429125,"Hartk",123.17,1,"T0",NA,"list(list(choice = ""HUMAN"", answers = list(HOWMANY = ""1"", SNOWDEPTH = ""3040CM"", PRECIPITATIONRAINSNOW = ""NO"", WHATBEHAVIORSDOYOUSEE = list(""SITTINGSTANDINGLYING"")), filters = list()))",1,1,"HUMAN",NA,1,"3040CM",NA,NA,"NO",0,0,0,0,0,0,1,0,31429125,"Pine","WHIP","31_06_WHIP_0061.JPG","31_06_WHIP_0062.JPG","31_06_WHIP_0063.JPG",31,6,1,1
"186",201,154692766,31428713,"MWillis875",123.17,1,"T0",NA,"list(list(choice = ""DEERWHITETAILED"", answers = list(HOWMANY = ""1"", SNOWDEPTH = ""3040CM"", YOUNGPRESENT = ""NO"", ANTLERSPRESENT = ""NO"", PRECIPITATIONRAINSNOW = ""NO"", WHATBEHAVIORSDOYOUSEE = list(""FORAGINGEATING"", ""WALKINGRUNNING"")), filters = list()))",1,1,"DEERWHITETAILED",NA,1,"3040CM","NO","NO","NO",0,0,0,1,0,0,0,1,31428713,"Pine","WF","22_18_WF_0031.JPG","22_18_WF_0032.JPG",NA,22,18,1,1
"187",202,154692791,31428942,"not-logged-in-a171f677a40edce0c0ab",123.17,1,"T0",NA,"list(list(choice = ""DEERWHITETAILED"", answers = list(HOWMANY = ""1"", SNOWDEPTH = ""010CM"", YOUNGPRESENT = ""NO"", ANTLERSPRESENT = ""NO"", PRECIPITATIONRAINSNOW = ""YES"", WHATBEHAVIORSDOYOUSEE = list(""WALKINGRUNNING"")), filters = list()))",1,1,"DEERWHITETAILED",NA,1,"010CM","NO","NO","YES",0,0,0,0,0,0,0,1,31428942,"Pine","DEG","29_19_DEG_0028.JPG","29_19_DEG_0029.JPG","29_19_DEG_0030.JPG",29,19,1,1
"188",203,154692844,31428881,"Hartk",123.17,1,"T0",NA,"list(list(choice = ""DEERWHITETAILED"", answers = list(HOWMANY = ""1"", YOUNGPRESENT = ""NO"", ANTLERSPRESENT = ""NO"", PRECIPITATIONRAINSNOW = ""NO"", WHATBEHAVIORSDOYOUSEE = list(""WALKINGRUNNING"")), filters = list()))",1,1,"DEERWHITETAILED",NA,1,NA,"NO","NO","NO",0,0,0,0,0,0,0,1,31428881,"Deciduous","BC","24_04_BC_0049.JPG","24_04_BC_0050.JPG","24_04_BC_0051.JPG",24,4,1,1
"189",204,154692891,31429085,"not-logged-in-42881cd7c1c2c2f4d1fc",123.17,1,"T0",NA,"list(list(choice = ""DEERWHITETAILED"", answers = list(HOWMANY = ""1"", SNOWDEPTH = ""2030CM"", YOUNGPRESENT = ""YES"", ANTLERSPRESENT = ""NO"", PRECIPITATIONRAINSNOW = ""NO"", WHATBEHAVIORSDOYOUSEE = list(""WALKINGRUNNING"")), filters = list()))",1,1,"DEERWHITETAILED",NA,1,"2030CM","YES","NO","NO",0,0,0,0,0,0,0,1,31429085,"Pine","DEG","29_19_DEG_0475.JPG","29_19_DEG_0476.JPG","29_19_DEG_0477.JPG",29,19,1,1
"190",205,154692911,31428714,"abuckley2681",123.17,1,"T0",NA,"list(list(choice = ""FISHER"", answers = list(HOWMANY = ""1"", SNOWDEPTH = ""1020CM"", YOUNGPRESENT = ""NO"", PRECIPITATIONRAINSNOW = ""NO"", WHATBEHAVIORSDOYOUSEE = list(""OTHER"")), filters = list()))",1,1,"FISHER",NA,1,"1020CM","NO",NA,"NO",0,0,0,0,0,1,0,0,31428714,"Pine","WF","22_18_WF_0037.JPG","22_18_WF_0038.JPG","22_18_WF_0039.JPG",22,18,1,1
"191",207,154693098,31428437,"not-logged-in-a171f677a40edce0c0ab",123.17,1,"T0",NA,"list(list(choice = ""COYOTE"", answers = list(HOWMANY = ""1"", SNOWDEPTH = ""1020CM"", YOUNGPRESENT = ""NO"", PRECIPITATIONRAINSNOW = ""NO"", WHATBEHAVIORSDOYOUSEE = list(""WALKINGRUNNING"")), filters = list()))",1,1,"COYOTE",NA,1,"1020CM","NO",NA,"NO",0,0,0,0,0,0,0,1,31428437,"Deciduous","DON","14_22_DON_000085.JPG","14_22_DON_000086.JPG","14_22_DON_000087.JPG",14,22,1,1
"192",209,154693160,31429055,"abuckley2681",123.17,1,"T0",NA,"list(list(choice = ""DEERWHITETAILED"", answers = list(HOWMANY = ""1"", SNOWDEPTH = ""1020CM"", YOUNGPRESENT = ""NO"", ANTLERSPRESENT = ""NO"", PRECIPITATIONRAINSNOW = ""NO"", WHATBEHAVIORSDOYOUSEE = list(""WALKINGRUNNING"")), filters = list()))",1,1,"DEERWHITETAILED",NA,1,"1020CM","NO","NO","NO",0,0,0,0,0,0,0,1,31429055,"Pine","DEG","29_19_DEG_0385.JPG","29_19_DEG_0386.JPG","29_19_DEG_0387.JPG",29,19,1,1
"193",210,154693193,31428445,"not-logged-in-d0b06505b62640b2f255",123.17,1,"T0",NA,"list(list(choice = ""GROUSERUFFED"", answers = list(HOWMANY = ""1"", YOUNGPRESENT = ""NO"", PRECIPITATIONRAINSNOW = ""NO"", WHATBEHAVIORSDOYOUSEE = list(""WALKINGRUNNING"")), filters = list(TYPE = ""BIRD"")))",1,1,"GROUSERUFFED",NA,1,NA,"NO",NA,"NO",0,0,0,0,0,0,0,1,31428445,"Deciduous","DON","14_22_DON_000109.JPG","14_22_DON_000110.JPG","14_22_DON_000111.JPG",14,22,1,1
"194",211,154693250,31428353,"MWillis875",123.17,1,"T0",NA,"list(list(choice = ""PORCUPINE"", answers = list(HOWMANY = ""1"", SNOWDEPTH = ""010CM"", YOUNGPRESENT = ""NO"", PRECIPITATIONRAINSNOW = ""NO"", WHATBEHAVIORSDOYOUSEE = list(""WALKINGRUNNING"")), filters = list()))",1,1,"PORCUPINE",NA,1,"010CM","NO",NA,"NO",0,0,0,0,0,0,0,1,31428353,"Deciduous","BC","11_13_BC_000115.JPG","11_13_BC_000116.JPG","11_13_BC_000117.JPG",11,13,1,1
"195",212,154693262,31428922,"Hartk",123.17,1,"T0",NA,"list(list(choice = ""OTHERSMALLMAMMAL"", answers = list(HOWMANY = ""1"", SNOWDEPTH = ""2030CM"", YOUNGPRESENT = ""NO"", PRECIPITATIONRAINSNOW = ""NO"", WHATBEHAVIORSDOYOUSEE = list(""WALKINGRUNNING"")), filters = list()))",1,1,"OTHERSMALLMAMMAL",NA,1,"2030CM","NO",NA,"NO",0,0,0,0,0,0,0,1,31428922,"Deciduous","SH","25_09_SH_0084.JPG","25_09_SH_0085.JPG","25_09_SH_0086.JPG",25,9,1,1
"196",213,154693401,31428980,"MWillis875",123.17,1,"T0",NA,"list(list(choice = ""DEERWHITETAILED"", answers = list(HOWMANY = ""1"", SNOWDEPTH = ""2030CM"", YOUNGPRESENT = ""NO"", ANTLERSPRESENT = ""NO"", PRECIPITATIONRAINSNOW = ""NO"", WHATBEHAVIORSDOYOUSEE = list(""FORAGINGEATING"")), filters = list()))",1,1,"DEERWHITETAILED",NA,1,"2030CM","NO","NO","NO",0,0,0,1,0,0,0,0,31428980,"Pine","DEG","29_19_DEG_0160.JPG","29_19_DEG_0161.JPG","29_19_DEG_0162.JPG",29,19,1,1
"197",214,154693404,31428412,"not-logged-in-d0b06505b62640b2f255",123.17,1,"T0",NA,"list(list(choice = ""NOTHINGHERE"", answers = list(), filters = list()))",1,1,"NOTHINGHERE",NA,NA,NA,NA,NA,NA,NA,NA,NA,NA,NA,NA,NA,NA,31428412,"Deciduous","DON","14_22_DON_000010.JPG","14_22_DON_000011.JPG","14_22_DON_000012.JPG",14,22,1,1
"198",215,154693454,31429183,"abuckley2681",123.17,1,"T0",NA,"list(list(choice = ""DEERWHITETAILED"", answers = list(HOWMANY = ""1"", YOUNGPRESENT = ""NO"", ANTLERSPRESENT = ""NO"", PRECIPITATIONRAINSNOW = ""NO"", WHATBEHAVIORSDOYOUSEE = list(""WALKINGRUNNING"")), filters = list()))",1,1,"DEERWHITETAILED",NA,1,NA,"NO","NO","NO",0,0,0,0,0,0,0,1,31429183,"Pine","WF","33_01_WF_0091.JPG","33_01_WF_0092.JPG","33_01_WF_0093.JPG",33,1,1,1
"199",218,154693520,31429142,"not-logged-in-42881cd7c1c2c2f4d1fc",123.17,1,"T0",NA,"list(list(choice = ""DEERWHITETAILED"", answers = list(HOWMANY = ""1"", SNOWDEPTH = ""010CM"", YOUNGPRESENT = ""NO"", ANTLERSPRESENT = ""NO"", WHATBEHAVIORSDOYOUSEE = list(""WALKINGRUNNING"")), filters = list()))",1,1,"DEERWHITETAILED",NA,1,"010CM","NO","NO",NA,0,0,0,0,0,0,0,1,31429142,"Pine","WHIP","32_17_WHIP_0037.JPG","32_17_WHIP_0038.JPG","32_17_WHIP_0039.JPG",32,17,1,1
"200",219,154693572,31429162,"abuckley2681",123.17,1,"T0",NA,"list(list(choice = ""SOMETHINGHERE"", answers = list(), filters = list()))",1,1,"SOMETHINGHERE",NA,NA,NA,NA,NA,NA,NA,NA,NA,NA,NA,NA,NA,NA,31429162,"Pine","WF","33_01_WF_0022.JPG","33_01_WF_0023.JPG","33_01_WF_0024.JPG",33,1,1,1
"201",221,154693615,31428317,"MWillis875",123.17,1,"T0",NA,"list(list(choice = ""NOTHINGHERE"", answers = list(), filters = list()))",1,1,"NOTHINGHERE",NA,NA,NA,NA,NA,NA,NA,NA,NA,NA,NA,NA,NA,NA,31428317,"Deciduous","BC","11_13_BC_000007.JPG","11_13_BC_000008.JPG","11_13_BC_000009.JPG",11,13,1,1
"202",222,154693654,31428580,"abuckley2681",123.17,1,"T0",NA,"list(list(choice = ""NOTHINGHERE"", answers = list(), filters = list()))",1,1,"NOTHINGHERE",NA,NA,NA,NA,NA,NA,NA,NA,NA,NA,NA,NA,NA,NA,31428580,"Deciduous","BC","17_24_BC_000154.JPG","17_24_BC_000155.JPG","17_24_BC_000156.JPG",17,24,1,1
"203",223,154693676,31428372,"Hartk",123.17,1,"T0",NA,"list(list(choice = ""SQUIRRELGRAY"", answers = list(HOWMANY = ""1"", SNOWDEPTH = ""3040CM"", YOUNGPRESENT = ""NO"", PRECIPITATIONRAINSNOW = ""NO"", WHATBEHAVIORSDOYOUSEE = list(""WALKINGRUNNING"")), filters = list(TYPE = ""RODENTORRABBIT"")))",1,1,"SQUIRRELGRAY",NA,1,"3040CM","NO",NA,"NO",0,0,0,0,0,0,0,1,31428372,"Deciduous","BC","11_13_BC_000175.JPG","11_13_BC_000176.JPG","11_13_BC_000177.JPG",11,13,1,1
"204",225,154693683,31428324,"not-logged-in-a171f677a40edce0c0ab",123.17,1,"T0",NA,"list(list(choice = ""SQUIRRELGRAY"", answers = list(HOWMANY = ""1"", SNOWDEPTH = ""010CM"", YOUNGPRESENT = ""NO"", PRECIPITATIONRAINSNOW = ""NO"", WHATBEHAVIORSDOYOUSEE = list(""FORAGINGEATING"")), filters = list()))",1,1,"SQUIRRELGRAY",NA,1,"010CM","NO",NA,"NO",0,0,0,1,0,0,0,0,31428324,"Deciduous","BC","11_13_BC_000028.JPG","11_13_BC_000029.JPG","11_13_BC_000030.JPG",11,13,1,1
"205",226,154693848,31428357,"Hartk",123.17,1,"T0",NA,"list(list(choice = ""SQUIRRELGRAY"", answers = list(HOWMANY = ""1"", SNOWDEPTH = ""010CM"", YOUNGPRESENT = ""NO"", PRECIPITATIONRAINSNOW = ""NO"", WHATBEHAVIORSDOYOUSEE = list(""SITTINGSTANDINGLYING"")), filters = list(TYPE = ""RODENTORRABBIT"")))",1,1,"SQUIRRELGRAY",NA,1,"010CM","NO",NA,"NO",0,0,0,0,0,0,1,0,31428357,"Deciduous","BC","11_13_BC_000130.JPG","11_13_BC_000131.JPG","11_13_BC_000132.JPG",11,13,1,1
"206",227,154693859,31429067,"MWillis875",123.17,1,"T0",NA,"list(list(choice = ""SOMETHINGHERE"", answers = list(), filters = list()))",1,1,"SOMETHINGHERE",NA,NA,NA,NA,NA,NA,NA,NA,NA,NA,NA,NA,NA,NA,31429067,"Pine","DEG","29_19_DEG_0421.JPG","29_19_DEG_0422.JPG","29_19_DEG_0423.JPG",29,19,1,1
"207",228,154693955,31428575,"Hartk",123.17,1,"T0",NA,"list(list(choice = ""DEERWHITETAILED"", answers = list(HOWMANY = ""1"", SNOWDEPTH = ""010CM"", YOUNGPRESENT = ""NO"", ANTLERSPRESENT = ""NO"", PRECIPITATIONRAINSNOW = ""NO"", WHATBEHAVIORSDOYOUSEE = list(""WALKINGRUNNING"")), filters = list()))",1,1,"DEERWHITETAILED",NA,1,"010CM","NO","NO","NO",0,0,0,0,0,0,0,1,31428575,"Deciduous","BC","17_24_BC_000139.JPG","17_24_BC_000140.JPG","17_24_BC_000141.JPG",17,24,1,1
"208",229,154693959,31429144,"MWillis875",123.17,1,"T0",NA,"list(list(choice = ""SQUIRRELGRAY"", answers = list(HOWMANY = ""1"", SNOWDEPTH = ""010CM"", YOUNGPRESENT = ""NO"", PRECIPITATIONRAINSNOW = ""NO"", WHATBEHAVIORSDOYOUSEE = list(""WALKINGRUNNING"")), filters = list()))",1,1,"SQUIRRELGRAY",NA,1,"010CM","NO",NA,"NO",0,0,0,0,0,0,0,1,31429144,"Pine","WHIP","32_17_WHIP_0043.JPG","32_17_WHIP_0044.JPG","32_17_WHIP_0045.JPG",32,17,1,1
"209",230,154693994,31428292,"not-logged-in-42881cd7c1c2c2f4d1fc",123.17,1,"T0",NA,"list(list(choice = ""NOTHINGHERE"", answers = list(), filters = list()))",1,1,"NOTHINGHERE",NA,NA,NA,NA,NA,NA,NA,NA,NA,NA,NA,NA,NA,NA,31428292,"Pine","WF","04_26_WF_000004.JPG","04_26_WF_000005.JPG","04_26_WF_000006.JPG",4,26,1,1
"210",231,154694011,31428784,"not-logged-in-a171f677a40edce0c0ab",123.17,1,"T0",NA,"list(list(choice = ""NOTHINGHERE"", answers = list(), filters = list()))",1,1,"NOTHINGHERE",NA,NA,NA,NA,NA,NA,NA,NA,NA,NA,NA,NA,NA,NA,31428784,"Pine","WF","22_18_WF_0250.JPG","22_18_WF_0251.JPG","22_18_WF_0252.JPG",22,18,1,1
"211",232,154694018,31428911,"abuckley2681",123.17,1,"T0",NA,"list(list(choice = ""FOXRED"", answers = list(HOWMANY = ""1"", SNOWDEPTH = ""1020CM"", YOUNGPRESENT = ""NO"", WHATBEHAVIORSDOYOUSEE = list(""WALKINGRUNNING"")), filters = list()))",1,1,"FOXRED",NA,1,"1020CM","NO",NA,NA,0,0,0,0,0,0,0,1,31428911,"Deciduous","SH","25_09_SH_0051.JPG","25_09_SH_0052.JPG","25_09_SH_0053.JPG",25,9,1,1
"212",233,154694034,31428947,"Hartk",123.17,1,"T0",NA,"list(list(choice = ""DEERWHITETAILED"", answers = list(HOWMANY = ""1"", SNOWDEPTH = ""1020CM"", YOUNGPRESENT = ""NO"", ANTLERSPRESENT = ""NO"", PRECIPITATIONRAINSNOW = ""NO"", WHATBEHAVIORSDOYOUSEE = list(""WALKINGRUNNING"")), filters = list()))",1,1,"DEERWHITETAILED",NA,1,"1020CM","NO","NO","NO",0,0,0,0,0,0,0,1,31428947,"Pine","DEG","29_19_DEG_0043.JPG","29_19_DEG_0044.JPG","29_19_DEG_0045.JPG",29,19,1,1
"213",235,154694096,31428493,"not-logged-in-42881cd7c1c2c2f4d1fc",123.17,1,"T0",NA,"list(list(choice = ""DEERWHITETAILED"", answers = list(HOWMANY = ""1"", SNOWDEPTH = ""010CM"", YOUNGPRESENT = ""NO"", ANTLERSPRESENT = ""NO"", WHATBEHAVIORSDOYOUSEE = list(""WALKINGRUNNING"")), filters = list()))",1,1,"DEERWHITETAILED",NA,1,"010CM","NO","NO",NA,0,0,0,0,0,0,0,1,31428493,"Pine","DEG","15_14_DEG_000133.JPG","15_14_DEG_000134.JPG","15_14_DEG_000135.JPG",15,14,1,1
"214",236,154694130,31428433,"abuckley2681",123.17,1,"T0",NA,"list(list(choice = ""DEERWHITETAILED"", answers = list(HOWMANY = ""1"", SNOWDEPTH = ""010CM"", YOUNGPRESENT = ""NO"", PRECIPITATIONRAINSNOW = ""YES"", WHATBEHAVIORSDOYOUSEE = list(""WALKINGRUNNING"")), filters = list()))",1,1,"DEERWHITETAILED",NA,1,"010CM","NO",NA,"YES",0,0,0,0,0,0,0,1,31428433,"Deciduous","DON","14_22_DON_000073.JPG","14_22_DON_000074.JPG","14_22_DON_000075.JPG",14,22,1,1
"215",237,154694174,31428638,"not-logged-in-a171f677a40edce0c0ab",123.17,1,"T0",NA,"list(list(choice = ""COYOTE"", answers = list(HOWMANY = ""1"", SNOWDEPTH = ""010CM"", YOUNGPRESENT = ""NO"", PRECIPITATIONRAINSNOW = ""NO"", WHATBEHAVIORSDOYOUSEE = list(""WALKINGRUNNING"")), filters = list()))",1,1,"COYOTE",NA,1,"010CM","NO",NA,"NO",0,0,0,0,0,0,0,1,31428638,"Pine","WHIP","18_16_WHIP_000055.JPG","18_16_WHIP_000056.JPG","18_16_WHIP_000057.JPG",18,16,1,1
"216",238,154694210,31428930,"Hartk",123.17,1,"T0",NA,"list(list(choice = ""FISHER"", answers = list(HOWMANY = ""1"", SNOWDEPTH = ""3040CM"", YOUNGPRESENT = ""NO"", PRECIPITATIONRAINSNOW = ""NO"", WHATBEHAVIORSDOYOUSEE = list(""WALKINGRUNNING"")), filters = list(TYPE = ""WEASELLIKECARNIVORE"")))",1,1,"FISHER",NA,1,"3040CM","NO",NA,"NO",0,0,0,0,0,0,0,1,31428930,"Pine","DEG","28_15_DEG_0008.JPG","28_15_DEG_0009.JPG","28_15_DEG_0010.JPG",28,15,1,1
"217",239,154694214,31428993,"MWillis875",123.17,1,"T0",NA,"list(list(choice = ""DEERWHITETAILED"", answers = list(HOWMANY = ""1"", YOUNGPRESENT = ""NO"", ANTLERSPRESENT = ""NO"", PRECIPITATIONRAINSNOW = ""NO"", WHATBEHAVIORSDOYOUSEE = list(""WALKINGRUNNING"")), filters = list()))",1,1,"DEERWHITETAILED",NA,1,NA,"NO","NO","NO",0,0,0,0,0,0,0,1,31428993,"Pine","DEG","29_19_DEG_0199.JPG","29_19_DEG_0200.JPG","29_19_DEG_0201.JPG",29,19,1,1
"218",241,154694290,31429168,"Hartk",123.17,1,"T0",NA,"list(list(choice = ""DEERWHITETAILED"", answers = list(HOWMANY = ""1"", SNOWDEPTH = ""1020CM"", YOUNGPRESENT = ""NO"", ANTLERSPRESENT = ""NO"", PRECIPITATIONRAINSNOW = ""NO"", WHATBEHAVIORSDOYOUSEE = list(""WALKINGRUNNING"")), filters = list()))",1,1,"DEERWHITETAILED",NA,1,"1020CM","NO","NO","NO",0,0,0,0,0,0,0,1,31429168,"Pine","WF","33_01_WF_0043.JPG","33_01_WF_0044.JPG","33_01_WF_0045.JPG",33,1,1,1
"219",242,154694355,31428636,"MWillis875",123.17,1,"T0",NA,"list(list(choice = ""DEERWHITETAILED"", answers = list(HOWMANY = ""1"", SNOWDEPTH = ""1020CM"", YOUNGPRESENT = ""NO"", ANTLERSPRESENT = ""NO"", PRECIPITATIONRAINSNOW = ""NO"", WHATBEHAVIORSDOYOUSEE = list(""WALKINGRUNNING"")), filters = list()))",1,1,"DEERWHITETAILED",NA,1,"1020CM","NO","NO","NO",0,0,0,0,0,0,0,1,31428636,"Pine","WHIP","18_16_WHIP_000049.JPG","18_16_WHIP_000050.JPG","18_16_WHIP_000051.JPG",18,16,1,1
"220",243,154694362,31428777,"abuckley2681",123.17,1,"T0",NA,"list(list(choice = ""DEERWHITETAILED"", answers = list(HOWMANY = ""1"", SNOWDEPTH = ""2030CM"", YOUNGPRESENT = ""NO"", ANTLERSPRESENT = ""NO"", PRECIPITATIONRAINSNOW = ""NO"", WHATBEHAVIORSDOYOUSEE = list(""WALKINGRUNNING"")), filters = list()))",1,1,"DEERWHITETAILED",NA,1,"2030CM","NO","NO","NO",0,0,0,0,0,0,0,1,31428777,"Pine","WF","22_18_WF_0229.JPG","22_18_WF_0230.JPG","22_18_WF_0231.JPG",22,18,1,1
"221",244,154694387,31428361,"not-logged-in-d0b06505b62640b2f255",123.17,1,"T0",NA,"list(list(choice = ""TURKEY"", answers = list(), filters = list()), list(choice = ""VULTURE"", answers = list(HOWMANY = ""1"", SNOWDEPTH = ""010CM"", YOUNGPRESENT = ""NO"", PRECIPITATIONRAINSNOW = ""NO"", WHATBEHAVIORSDOYOUSEE = list(""WALKINGRUNNING"")), filters = list()))",2,1,"TURKEY",NA,NA,NA,NA,NA,NA,NA,NA,NA,NA,NA,NA,NA,NA,31428361,"Deciduous","BC","11_13_BC_000142.JPG","11_13_BC_000143.JPG","11_13_BC_000144.JPG",11,13,1,1
"222",246,154694404,31428485,"Hartk",123.17,1,"T0",NA,"list(list(choice = ""COYOTE"", answers = list(HOWMANY = ""1"", SNOWDEPTH = ""010CM"", YOUNGPRESENT = ""NO"", PRECIPITATIONRAINSNOW = ""NO"", WHATBEHAVIORSDOYOUSEE = list(""WALKINGRUNNING"")), filters = list(TYPE = ""DOGLIKECARNIVORE"")))",1,1,"COYOTE",NA,1,"010CM","NO",NA,"NO",0,0,0,0,0,0,0,1,31428485,"Pine","DEG","15_14_DEG_000106.JPG","15_14_DEG_000107.JPG",NA,15,14,1,1
"223",247,154694443,31428442,"not-logged-in-42881cd7c1c2c2f4d1fc",123.17,1,"T0",NA,"list(list(choice = ""FOXRED"", answers = list(HOWMANY = ""1"", SNOWDEPTH = ""3040CM"", YOUNGPRESENT = ""NO"", PRECIPITATIONRAINSNOW = ""NO"", WHATBEHAVIORSDOYOUSEE = list(""WALKINGRUNNING"")), filters = list()))",1,1,"FOXRED",NA,1,"3040CM","NO",NA,"NO",0,0,0,0,0,0,0,1,31428442,"Deciduous","DON","14_22_DON_000100.JPG","14_22_DON_000101.JPG","14_22_DON_000102.JPG",14,22,1,1
"224",248,154694459,31428809,"HMonnat",123.17,1,"T0",NA,"list(list(choice = ""DEERWHITETAILED"", answers = list(HOWMANY = ""1"", YOUNGPRESENT = ""NO"", ANTLERSPRESENT = ""YES"", PRECIPITATIONRAINSNOW = ""NO"", WHATBEHAVIORSDOYOUSEE = list(""WALKINGRUNNING"")), filters = list()))",1,1,"DEERWHITETAILED",NA,1,NA,"NO","YES","NO",0,0,0,0,0,0,0,1,31428809,"Pine","WF","22_18_WF_0328.JPG","22_18_WF_0329.JPG","22_18_WF_0330.JPG",22,18,1,1
"225",250,154694490,31428300,"abuckley2681",123.17,1,"T0",NA,"list(list(choice = ""DEERWHITETAILED"", answers = list(HOWMANY = ""1"", SNOWDEPTH = ""010CM"", YOUNGPRESENT = ""NO"", ANTLERSPRESENT = ""NO"", PRECIPITATIONRAINSNOW = ""NO"", WHATBEHAVIORSDOYOUSEE = list(""WALKINGRUNNING"")), filters = list()))",1,1,"DEERWHITETAILED",NA,1,"010CM","NO","NO","NO",0,0,0,0,0,0,0,1,31428300,"Pine","WF","04_26_WF_000028.JPG","04_26_WF_000029.JPG","04_26_WF_000030.JPG",4,26,1,1
"226",252,154694528,31429024,"Hartk",123.17,1,"T0",NA,"list(list(choice = ""DEERWHITETAILED"", answers = list(HOWMANY = ""1"", SNOWDEPTH = ""3040CM"", YOUNGPRESENT = ""NO"", ANTLERSPRESENT = ""NO"", PRECIPITATIONRAINSNOW = ""NO"", WHATBEHAVIORSDOYOUSEE = list(""WALKINGRUNNING"")), filters = list()))",1,1,"DEERWHITETAILED",NA,1,"3040CM","NO","NO","NO",0,0,0,0,0,0,0,1,31429024,"Pine","DEG","29_19_DEG_0292.JPG","29_19_DEG_0293.JPG","29_19_DEG_0294.JPG",29,19,1,1
"227",253,154694532,31428499,"MWillis875",123.17,1,"T0",NA,"list(list(choice = ""SOMETHINGHERE"", answers = list(), filters = list()))",1,1,"SOMETHINGHERE",NA,NA,NA,NA,NA,NA,NA,NA,NA,NA,NA,NA,NA,NA,31428499,"Pine","DEG","15_14_DEG_000154.JPG","15_14_DEG_000155.JPG","15_14_DEG_000156.JPG",15,14,1,1
"228",254,154694585,31429175,"abuckley2681",123.17,1,"T0",NA,"list(list(choice = ""DEERWHITETAILED"", answers = list(HOWMANY = ""1"", SNOWDEPTH = ""2030CM"", YOUNGPRESENT = ""NO"", ANTLERSPRESENT = ""NO"", PRECIPITATIONRAINSNOW = ""NO"", WHATBEHAVIORSDOYOUSEE = list(""WALKINGRUNNING"")), filters = list()))",1,1,"DEERWHITETAILED",NA,1,"2030CM","NO","NO","NO",0,0,0,0,0,0,0,1,31429175,"Pine","WF","33_01_WF_0064.JPG","33_01_WF_0065.JPG","33_01_WF_0066.JPG",33,1,1,1
"229",256,154694639,31429072,"abuckley2681",123.17,1,"T0",NA,"list(list(choice = ""NOTHINGHERE"", answers = list(), filters = list()))",1,1,"NOTHINGHERE",NA,NA,NA,NA,NA,NA,NA,NA,NA,NA,NA,NA,NA,NA,31429072,"Pine","DEG","29_19_DEG_0436.JPG","29_19_DEG_0437.JPG","29_19_DEG_0438.JPG",29,19,1,1
"230",257,154694646,31428807,"Hartk",123.17,1,"T0",NA,"list(list(choice = ""DEERWHITETAILED"", answers = list(HOWMANY = ""2"", YOUNGPRESENT = ""NO"", ANTLERSPRESENT = ""NO"", PRECIPITATIONRAINSNOW = ""NO"", WHATBEHAVIORSDOYOUSEE = list(""WALKINGRUNNING"")), filters = list()))",1,1,"DEERWHITETAILED",NA,2,NA,"NO","NO","NO",0,0,0,0,0,0,0,1,31428807,"Pine","WF","22_18_WF_0319.JPG","22_18_WF_0320.JPG","22_18_WF_0321.JPG",22,18,1,1
"231",258,154694700,31428739,"Hartk",123.17,1,"T0",NA,"list(list(choice = ""FISHER"", answers = list(HOWMANY = ""1"", SNOWDEPTH = ""1020CM"", YOUNGPRESENT = ""NO"", PRECIPITATIONRAINSNOW = ""NO"", WHATBEHAVIORSDOYOUSEE = list(""WALKINGRUNNING"")), filters = list()))",1,1,"FISHER",NA,1,"1020CM","NO",NA,"NO",0,0,0,0,0,0,0,1,31428739,"Pine","WF","22_18_WF_0112.JPG","22_18_WF_0113.JPG","22_18_WF_0114.JPG",22,18,1,1
"232",260,154694767,31429101,"Hartk",123.17,1,"T0",NA,"list(list(choice = ""DEERWHITETAILED"", answers = list(HOWMANY = ""1"", SNOWDEPTH = ""4050CM"", YOUNGPRESENT = ""NO"", ANTLERSPRESENT = ""NO"", PRECIPITATIONRAINSNOW = ""NO"", WHATBEHAVIORSDOYOUSEE = list(""WALKINGRUNNING"")), filters = list()))",1,1,"DEERWHITETAILED",NA,1,"4050CM","NO","NO","NO",0,0,0,0,0,0,0,1,31429101,"Pine","DEG","29_19_DEG_0523.JPG","29_19_DEG_0524.JPG","29_19_DEG_0525.JPG",29,19,1,1
"233",261,154694784,31428463,"HMonnat",123.17,1,"T0",NA,"list(list(choice = ""DEERWHITETAILED"", answers = list(HOWMANY = ""1"", SNOWDEPTH = ""010CM"", YOUNGPRESENT = ""NO"", ANTLERSPRESENT = ""NO"", PRECIPITATIONRAINSNOW = ""NO"", WHATBEHAVIORSDOYOUSEE = list(""WALKINGRUNNING"")), filters = list()))",1,1,"DEERWHITETAILED",NA,1,"010CM","NO","NO","NO",0,0,0,0,0,0,0,1,31428463,"Pine","DEG","15_14_DEG_000040.JPG","15_14_DEG_000041.JPG","15_14_DEG_000042.JPG",15,14,1,1
"234",263,154694805,31428328,"MWillis875",123.17,1,"T0",NA,"list(list(choice = ""SQUIRRELGRAY"", answers = list(HOWMANY = ""1"", SNOWDEPTH = ""010CM"", YOUNGPRESENT = ""NO"", PRECIPITATIONRAINSNOW = ""NO"", WHATBEHAVIORSDOYOUSEE = list(""WALKINGRUNNING"")), filters = list()))",1,1,"SQUIRRELGRAY",NA,1,"010CM","NO",NA,"NO",0,0,0,0,0,0,0,1,31428328,"Deciduous","BC","11_13_BC_000040.JPG","11_13_BC_000041.JPG","11_13_BC_000042.JPG",11,13,1,1
"235",264,154694865,31428634,"abuckley2681",123.17,1,"T0",NA,"list(list(choice = ""RACCOON"", answers = list(HOWMANY = ""1"", SNOWDEPTH = ""010CM"", YOUNGPRESENT = ""NO"", PRECIPITATIONRAINSNOW = ""NO"", WHATBEHAVIORSDOYOUSEE = list(""WALKINGRUNNING"")), filters = list()))",1,1,"RACCOON",NA,1,"010CM","NO",NA,"NO",0,0,0,0,0,0,0,1,31428634,"Pine","WHIP","18_16_WHIP_000043.JPG","18_16_WHIP_000044.JPG","18_16_WHIP_000045.JPG",18,16,1,1
"236",265,154694877,31429088,"Hartk",123.17,1,"T0",NA,"list(list(choice = ""DEERWHITETAILED"", answers = list(HOWMANY = ""1"", SNOWDEPTH = ""3040CM"", YOUNGPRESENT = ""NO"", ANTLERSPRESENT = ""NO"", PRECIPITATIONRAINSNOW = ""NO"", WHATBEHAVIORSDOYOUSEE = list(""FORAGINGEATING"", ""SITTINGSTANDINGLYING"")), filters = list()))",1,1,"DEERWHITETAILED",NA,1,"3040CM","NO","NO","NO",0,0,0,1,0,0,1,0,31429088,"Pine","DEG","29_19_DEG_0484.JPG","29_19_DEG_0485.JPG","29_19_DEG_0486.JPG",29,19,1,1
"237",266,154694921,31428727,"Hartk",123.17,1,"T0",NA,"list(list(choice = ""SOMETHINGHERE"", answers = list(), filters = list()))",1,1,"SOMETHINGHERE",NA,NA,NA,NA,NA,NA,NA,NA,NA,NA,NA,NA,NA,NA,31428727,"Pine","WF","22_18_WF_0076.JPG","22_18_WF_0077.JPG","22_18_WF_0078.JPG",22,18,1,1
"238",267,154694949,31428415,"HMonnat",123.17,1,"T0",NA,"list(list(choice = ""DEERWHITETAILED"", answers = list(HOWMANY = ""1"", SNOWDEPTH = ""010CM"", ANTLERSPRESENT = ""NO"", PRECIPITATIONRAINSNOW = ""NO"", WHATBEHAVIORSDOYOUSEE = list(""FORAGINGEATING"")), filters = list()))",1,1,"DEERWHITETAILED",NA,1,"010CM",NA,"NO","NO",0,0,0,1,0,0,0,0,31428415,"Deciduous","DON","14_22_DON_000019.JPG","14_22_DON_000020.JPG","14_22_DON_000021.JPG",14,22,1,1
"239",268,154694954,31428725,"abuckley2681",123.17,1,"T0",NA,"list(list(choice = ""DEERWHITETAILED"", answers = list(HOWMANY = ""1"", SNOWDEPTH = ""2030CM"", YOUNGPRESENT = ""NO"", ANTLERSPRESENT = ""NO"", PRECIPITATIONRAINSNOW = ""NO"", WHATBEHAVIORSDOYOUSEE = list(""WALKINGRUNNING"")), filters = list()))",1,1,"DEERWHITETAILED",NA,1,"2030CM","NO","NO","NO",0,0,0,0,0,0,0,1,31428725,"Pine","WF","22_18_WF_0070.JPG","22_18_WF_0071.JPG","22_18_WF_0072.JPG",22,18,1,1
"240",270,154695028,31428651,"MWillis875",123.17,1,"T0",NA,"list(list(choice = ""NOTHINGHERE"", answers = list(), filters = list()))",1,1,"NOTHINGHERE",NA,NA,NA,NA,NA,NA,NA,NA,NA,NA,NA,NA,NA,NA,31428651,"Deciduous","DON","21_21_DON_0024.JPG","21_21_DON_0025.JPG","21_21_DON_0026.JPG",21,21,1,1
